[
	{
		"rt": 1038.1000000052154,
		"stimulus": "    <p><b>Welcome to the experiment! Please read the information below.</b></p>     <hr>     <p><i>Here are the terms and conditions. Blabla something something.</i><p>     <p><i>Another paragraph blabla something else.</i><p>",
		"button_pressed": 0,
		"screen": "session_info",
		"participant_id": "20210218_114452_3nc50",
		"experiment_version": "0.0.1",
		"data_path": "data/20210218_114452_3nc50",
		"datetime": "Thu Feb 18 2021 11:44:52 GMT+0800 (Singapore Standard Time)",
		"date": "20210218",
		"time": "114452",
		"date_timezone": -480,
		"window_width": 2560,
		"window_height": 1297,
		"window_resolution": "2560x1297",
		"screen_width": 2560,
		"screen_height": 1440,
		"screen_resolution": "2560x1440",
		"screen_colordepth": 24,
		"screen_pixeldepth": 24,
		"screen_touchscreen": false,
		"browser_name": "Netscape",
		"browser_codename": "Mozilla",
		"browser_engine": "Gecko",
		"browser_version": "5.0 (Windows NT 10.0; Win64; x64) AppleWebKit/537.36 (KHTML, like Gecko) Chrome/88.0.4324.182 Safari/537.36",
		"browser": "Mozilla/5.0 (Windows NT 10.0; Win64; x64) AppleWebKit/537.36 (KHTML, like Gecko) Chrome/88.0.4324.182 Safari/537.36",
		"system_platform": "Win32",
		"system_language": "fr-FR",
		"trial_type": "html-button-response",
		"trial_index": 0,
		"time_elapsed": 1054,
		"internal_node_id": "0.0-0.0"
	},
	{
		"rt": 30124.079999979585,
		"responses": "{\"Age\":\"fds\",\"Initials\":\"qdf\"}",
		"screen": "participant_info_general",
		"trial_type": "survey-text",
		"trial_index": 1,
		"time_elapsed": 31187,
		"internal_node_id": "0.0-1.0"
	},
	{
		"rt": 1594.0450000343844,
		"responses": "{\"AlreadyPlayed\":\"No\"}",
		"question_order": "[0]",
		"screen": "participant_info_session",
		"trial_type": "survey-multi-choice",
		"trial_index": 2,
		"time_elapsed": 32782,
		"internal_node_id": "0.0-2.0"
	},
	{
		"rt": 987.9749999963678,
		"stimulus": "    <p>In this experiment, a circle will appear in the center of the screen.</p>     <p>If the circle is <strong>blue</strong>, press the letter B on the keyboard as fast as you can.</p>     <p>If the circle is <strong>orange</strong>, press the letter O as fast as you can.</p>     <div style='width: 100%;'>         <div style='float: left;'>             <img src='img/blue.png'></img>             <p class='small'><strong>Press the <- key</strong></p>         </div>         <div class='float: right;'>             <img src='img/orange.png'></img>             <p class='small'><strong>Press the -> key</strong></p>         </div>     </div>     <br><p>Are you ready?</p>",
		"button_pressed": 0,
		"trial_type": "html-button-response",
		"trial_index": 3,
		"time_elapsed": 33776,
		"internal_node_id": "0.0-3.0"
	},
	{
		"rt": null,
		"stimulus": "<div style='font-size:5em'>+</div>",
		"key_press": null,
		"screen": "fixation_cross",
		"trial_type": "html-keyboard-response",
		"trial_index": 4,
		"time_elapsed": 34459,
		"internal_node_id": "0.0-4.0-0.0"
	},
	{
		"rt": 241.31499999202788,
		"stimulus": "stimuli/blue.png",
		"button_pressed": null,
		"key_press": 39,
		"answer": "rightarrow",
		"response_type": "Keyboard",
		"screen": "stimulus",
		"correct_key": "leftarrow",
		"correct_button": "<-",
		"trial_type": "image-buttonkeyboard-response",
		"trial_index": 5,
		"time_elapsed": 34724,
		"internal_node_id": "0.0-4.0-1.0",
		"prestimulus_duration": 683,
		"trial_number": 1,
		"correct": false
	},
	{
		"rt": null,
		"stimulus": "<p style='color:red; font-size:2em'><b>Wrong.</b></p><p>RT: 241.31 ms</p>",
		"key_press": null,
		"trial_type": "html-keyboard-response",
		"trial_index": 6,
		"time_elapsed": 35225,
		"internal_node_id": "0.0-4.0-2.0"
	},
	{
		"rt": null,
		"stimulus": "<div style='font-size:5em'>+</div>",
		"key_press": null,
		"screen": "fixation_cross",
		"trial_type": "html-keyboard-response",
		"trial_index": 7,
		"time_elapsed": 35831,
		"internal_node_id": "0.0-4.0-0.1"
	},
	{
		"rt": 138.73499998589978,
		"stimulus": "stimuli/orange.png",
		"button_pressed": null,
		"key_press": 39,
		"answer": "rightarrow",
		"response_type": "Keyboard",
		"screen": "stimulus",
		"correct_key": "rightarrow",
		"correct_button": "->",
		"trial_type": "image-buttonkeyboard-response",
		"trial_index": 8,
		"time_elapsed": 35973,
		"internal_node_id": "0.0-4.0-1.1",
		"prestimulus_duration": 606,
		"trial_number": 2,
		"correct": true
	},
	{
		"rt": null,
		"stimulus": "<p style='color:green; font-size:2em'><b>Correct!</b></p><p>RT: 138.73 ms</p>",
		"key_press": null,
		"trial_type": "html-keyboard-response",
		"trial_index": 9,
		"time_elapsed": 36475,
		"internal_node_id": "0.0-4.0-2.1"
	},
	{
		"rt": null,
		"stimulus": "<div style='font-size:5em'>+</div>",
		"key_press": null,
		"screen": "fixation_cross",
		"trial_type": "html-keyboard-response",
		"trial_index": 10,
		"time_elapsed": 37172,
		"internal_node_id": "0.0-4.0-0.2"
	},
	{
		"rt": 269.9650000431575,
		"stimulus": "stimuli/blue.png",
		"button_pressed": null,
		"key_press": 37,
		"answer": "leftarrow",
		"response_type": "Keyboard",
		"screen": "stimulus",
		"correct_key": "leftarrow",
		"correct_button": "<-",
		"trial_type": "image-buttonkeyboard-response",
		"trial_index": 11,
		"time_elapsed": 37445,
		"internal_node_id": "0.0-4.0-1.2",
		"prestimulus_duration": 697,
		"trial_number": 3,
		"correct": true
	},
	{
		"rt": null,
		"stimulus": "<p style='color:green; font-size:2em'><b>Correct!</b></p><p>RT: 269.97 ms</p>",
		"key_press": null,
		"trial_type": "html-keyboard-response",
		"trial_index": 12,
		"time_elapsed": 37948,
		"internal_node_id": "0.0-4.0-2.2"
	},
	{
		"rt": null,
		"stimulus": "<div style='font-size:5em'>+</div>",
		"key_press": null,
		"screen": "fixation_cross",
		"trial_type": "html-keyboard-response",
		"trial_index": 13,
		"time_elapsed": 38217,
		"internal_node_id": "0.0-4.0-0.3"
	},
	{
		"rt": 587.534999998752,
		"stimulus": "stimuli/orange.png",
		"button_pressed": null,
		"key_press": 37,
		"answer": "leftarrow",
		"response_type": "Keyboard",
		"screen": "stimulus",
		"correct_key": "rightarrow",
		"correct_button": "->",
		"trial_type": "image-buttonkeyboard-response",
		"trial_index": 14,
		"time_elapsed": 38808,
		"internal_node_id": "0.0-4.0-1.3",
		"prestimulus_duration": 269,
		"trial_number": 4,
		"correct": false
	},
	{
		"rt": null,
		"stimulus": "<p style='color:red; font-size:2em'><b>Wrong.</b></p><p>RT: 587.53 ms</p>",
		"key_press": null,
		"trial_type": "html-keyboard-response",
		"trial_index": 15,
		"time_elapsed": 39310,
		"internal_node_id": "0.0-4.0-2.3"
	},
	{
		"rt": 1877.9000000213273,
		"stimulus": "<p><b>Overall, did you find this task easy?</b></p>",
		"slider_start": 50,
		"response": 52,
		"screen": "information",
		"trial_type": "html-slider-response",
		"trial_index": 16,
		"time_elapsed": 41191,
		"internal_node_id": "0.0-5.0"
	},
	{
		"rt": 4735.36500002956,
		"stimulus": "<p><b>Thank you for participating!</b> Here are your results:</p><hr><p style='color:rgb(76,175,80);'>You responded correctly on <b>50.00%</b> of the trials.</p><p style='color:rgb(233,30,99);'>Your average response time was <b>204.35</b> ms.</p><hr><p> Don't hesitate to spread the word and share this experiment, science appreciates :)</p>",
		"button_pressed": 0,
		"screen": "fixation_cross",
		"experiment_duration": 41496.48499995237,
		"trial_type": "html-button-response",
		"trial_index": 17,
		"time_elapsed": 45928,
		"internal_node_id": "0.0-6.0"
	}
]