[
	{
		"rt": 1383.7150000035763,
		"stimulus": "    <p><b>Welcome to the experiment! Please read the information below.</b></p>     <hr>     <p><i>Here are the terms and conditions. Blabla something something.</i><p>     <p><i>Another paragraph blabla something else.</i><p>",
		"response": 0,
		"screen": "session_info",
		"participant_id": "20210223_154956_eoc96",
		"experiment_version": "0.0.1",
		"datetime": "23/02/2021 15:49:56",
		"date": "20210223",
		"time": "154956",
		"date_timezone": 8,
		"window_width": 1536,
		"window_height": 722,
		"window_resolution": "1536x722",
		"screen_width": 1536,
		"screen_height": 864,
		"screen_resolution": "1536x864",
		"screen_colordepth": 24,
		"screen_pixeldepth": 24,
		"screen_touchscreen": false,
		"browser_name": "Netscape",
		"browser_codename": "Mozilla",
		"browser_engine": "Gecko",
		"browser_version": "5.0 (Windows NT 10.0; Win64; x64) AppleWebKit/537.36 (KHTML, like Gecko) Chrome/88.0.4324.182 Safari/537.36",
		"browser": "Mozilla/5.0 (Windows NT 10.0; Win64; x64) AppleWebKit/537.36 (KHTML, like Gecko) Chrome/88.0.4324.182 Safari/537.36",
		"system_platform": "Win32",
		"system_language": "en-US",
		"trial_type": "html-button-response",
		"trial_index": 0,
		"time_elapsed": 1406,
		"internal_node_id": "0.0-0.0"
	},
	{
		"rt": 5688.12499998603,
		"response": {
			"Age": "20/04/1996",
			"Initials": "ZJ"
		},
		"screen": "participant_info_general",
		"trial_type": "survey-text",
		"trial_index": 1,
		"time_elapsed": 7098,
		"internal_node_id": "0.0-1.0"
	},
	{
		"rt": 3074.995000002673,
		"response": {
			"AlreadyPlayed": "Yes"
		},
		"question_order": [
			0
		],
		"screen": "participant_info_session",
		"trial_type": "survey-multi-choice",
		"trial_index": 2,
		"time_elapsed": 10175,
		"internal_node_id": "0.0-2.0"
	},
	{
		"rt": 1266.2000000127591,
		"stimulus": "    <p>In this experiment, a circle will appear in the center of the screen.</p>     <p>If the circle is <strong>blue</strong>, press the left arrow key on the keyboard as fast as you can.</p>     <p>If the circle is <strong>orange</strong>, press the right arrow key as fast as you can.</p>     <div style='width: 100%;'>         <div style='float: left;'>             <img src='img/blue.png'></img>             <p class='small'><strong>Press the left arrow key</strong></p>         </div>         <div class='float: right;'>             <img src='img/orange.png'></img>             <p class='small'><strong>Press the right arrow key</strong></p>         </div>     </div>     <br><p>Are you ready?</p>",
		"response": 0,
		"trial_type": "html-button-response",
		"trial_index": 3,
		"time_elapsed": 11442,
		"internal_node_id": "0.0-3.0"
	},
	{
		"rt": null,
		"stimulus": "<div style='font-size:5em'>+</div>",
		"response": null,
		"screen": "fixation_cross",
		"trial_type": "html-keyboard-response",
		"trial_index": 4,
		"time_elapsed": 11980,
		"internal_node_id": "0.0-4.0-0.0"
	},
	{
		"rt": 769.5050000038464,
		"stimulus": "stimuli/orange.png",
		"response": "arrowright",
		"click_x": 254,
		"click_y": 165,
		"screen": "stimulus",
		"correct_key": "arrowright",
		"trial_type": "image-keyboardmouse-response",
		"trial_index": 5,
		"time_elapsed": 12752,
		"internal_node_id": "0.0-4.0-1.0",
		"prestimulus_duration": 538,
		"trial_number": 1,
		"correct": true
	},
	{
		"rt": null,
		"stimulus": "<p style='color:green; font-size:2em'><b>Correct!</b></p><p>RT: 769.51 ms</p>",
		"response": null,
		"trial_type": "html-keyboard-response",
		"trial_index": 6,
		"time_elapsed": 13253,
		"internal_node_id": "0.0-4.0-2.0"
	},
	{
		"rt": null,
		"stimulus": "<div style='font-size:5em'>+</div>",
		"response": null,
		"screen": "fixation_cross",
		"trial_type": "html-keyboard-response",
		"trial_index": 7,
		"time_elapsed": 13840,
		"internal_node_id": "0.0-4.0-0.1"
	},
	{
		"rt": 581.8250000011176,
		"stimulus": "stimuli/blue.png",
		"response": "arrowleft",
		"screen": "stimulus",
		"correct_key": "arrowleft",
		"trial_type": "image-keyboardmouse-response",
		"trial_index": 8,
		"time_elapsed": 14423,
		"internal_node_id": "0.0-4.0-1.1",
		"prestimulus_duration": 587,
		"trial_number": 2,
		"correct": true
	},
	{
		"rt": null,
		"stimulus": "<p style='color:green; font-size:2em'><b>Correct!</b></p><p>RT: 581.83 ms</p>",
		"response": null,
		"trial_type": "html-keyboard-response",
		"trial_index": 9,
		"time_elapsed": 14923,
		"internal_node_id": "0.0-4.0-2.1"
	},
	{
		"rt": null,
		"stimulus": "<div style='font-size:5em'>+</div>",
		"response": null,
		"screen": "fixation_cross",
		"trial_type": "html-keyboard-response",
		"trial_index": 10,
		"time_elapsed": 15191,
		"internal_node_id": "0.0-4.0-0.2"
	},
	{
		"rt": 718.4549999947194,
		"stimulus": "stimuli/blue.png",
		"response": "arrowleft",
		"screen": "stimulus",
		"correct_key": "arrowleft",
		"trial_type": "image-keyboardmouse-response",
		"trial_index": 11,
		"time_elapsed": 15911,
		"internal_node_id": "0.0-4.0-1.2",
		"prestimulus_duration": 268,
		"trial_number": 3,
		"correct": true
	},
	{
		"rt": null,
		"stimulus": "<p style='color:green; font-size:2em'><b>Correct!</b></p><p>RT: 718.45 ms</p>",
		"response": null,
		"trial_type": "html-keyboard-response",
		"trial_index": 12,
		"time_elapsed": 16413,
		"internal_node_id": "0.0-4.0-2.2"
	},
	{
		"rt": null,
		"stimulus": "<div style='font-size:5em'>+</div>",
		"response": null,
		"screen": "fixation_cross",
		"trial_type": "html-keyboard-response",
		"trial_index": 13,
		"time_elapsed": 16782,
		"internal_node_id": "0.0-4.0-0.3"
	},
	{
		"rt": 322.2400000086054,
		"stimulus": "stimuli/orange.png",
		"response": "arrowright",
		"click_x": 257,
		"click_y": 158,
		"screen": "stimulus",
		"correct_key": "arrowright",
		"trial_type": "image-keyboardmouse-response",
		"trial_index": 14,
		"time_elapsed": 17106,
		"internal_node_id": "0.0-4.0-1.3",
		"prestimulus_duration": 369,
		"trial_number": 4,
		"correct": true
	},
	{
		"rt": null,
		"stimulus": "<p style='color:green; font-size:2em'><b>Correct!</b></p><p>RT: 322.24 ms</p>",
		"response": null,
		"trial_type": "html-keyboard-response",
		"trial_index": 15,
		"time_elapsed": 17606,
		"internal_node_id": "0.0-4.0-2.3"
	},
	{
		"rt": 2820.8900000026915,
		"stimulus": "<p><b>Overall, did you find this task easy?</b></p>",
		"slider_start": 50,
		"response": 60,
		"screen": "question_difficulty",
		"experiment_duration": 17673.47000000882,
		"trial_type": "html-slider-response",
		"trial_index": 16,
		"time_elapsed": 20428,
		"internal_node_id": "0.0-5.0",
		"interactions": "[]"
	}
]