[
	{
		"rt": 1509.715000007418,
		"stimulus": "    <p><b>Welcome to the experiment! Please read the information below.</b></p>     <hr>     <p><i>Here are the terms and conditions. Blabla something something.</i><p>     <p><i>Another paragraph blabla something else.</i><p>",
		"response": 0,
		"screen": "session_info",
		"participant_id": "20210228_231904_fuvqe",
		"experiment_version": "0.0.1",
		"datetime": "28/02/2021 23:19:04",
		"date": "20210228",
		"time": "231904",
		"date_timezone": 8,
		"window_width": 1556,
		"window_height": 985,
		"window_resolution": "1556x985",
		"screen_width": 1920,
		"screen_height": 1080,
		"screen_resolution": "1920x1080",
		"screen_colordepth": 24,
		"screen_pixeldepth": 24,
		"screen_touchscreen": false,
		"browser_name": "Netscape",
		"browser_codename": "Mozilla",
		"browser_engine": "Gecko",
		"browser_version": "5.0 (X11; Linux x86_64) AppleWebKit/537.36 (KHTML, like Gecko) Chrome/88.0.4324.96 Safari/537.36",
		"browser": "Mozilla/5.0 (X11; Linux x86_64) AppleWebKit/537.36 (KHTML, like Gecko) Chrome/88.0.4324.96 Safari/537.36",
		"system_platform": "Linux x86_64",
		"system_language": "en-GB",
		"trial_type": "html-button-response",
		"trial_index": 0,
		"time_elapsed": 1516,
		"internal_node_id": "0.0-0.0"
	},
	{
		"rt": 4508.119999998598,
		"response": {
			"Age": "a",
			"Initials": "a"
		},
		"screen": "participant_info_general",
		"trial_type": "survey-text",
		"trial_index": 1,
		"time_elapsed": 6041,
		"internal_node_id": "0.0-1.0"
	},
	{
		"rt": 6010.540000002948,
		"response": {
			"AlreadyPlayed": "No"
		},
		"question_order": [
			0
		],
		"screen": "participant_info_session",
		"trial_type": "survey-multi-choice",
		"trial_index": 2,
		"time_elapsed": 12061,
		"internal_node_id": "0.0-2.0"
	},
	{
		"rt": 1263.5499999887543,
		"stimulus": "    <p>In this experiment, a circle will appear in the center of the screen.</p>     <p>If the circle is <strong>blue</strong>, press the left arrow key on the keyboard as fast as you can.</p>     <p>If the circle is <strong>orange</strong>, press the right arrow key as fast as you can.</p>     <div style='width: 100%;'>         <div style='float: left;'>             <img src='img/blue.png'></img>             <p class='small'><strong>Press the left arrow key</strong></p>         </div>         <div class='float: right;'>             <img src='img/orange.png'></img>             <p class='small'><strong>Press the right arrow key</strong></p>         </div>     </div>     <br><p>Are you ready?</p>",
		"response": 0,
		"trial_type": "html-button-response",
		"trial_index": 3,
		"time_elapsed": 13343,
		"internal_node_id": "0.0-3.0"
	},
	{
		"rt": null,
		"stimulus": "<div style='font-size:5em'>+</div>",
		"response": null,
		"screen": "fixation_cross",
		"trial_type": "html-keyboard-response",
		"trial_index": 4,
		"time_elapsed": 14048,
		"internal_node_id": "0.0-4.0-0.0"
	},
	{
		"rt": 114.28999999770895,
		"stimulus": "stimuli/blue.png",
		"response": "arrowleft",
		"screen": "stimulus",
		"correct_key": "arrowleft",
		"trial_type": "image-keyboardmouse-response",
		"trial_index": 5,
		"time_elapsed": 14169,
		"internal_node_id": "0.0-4.0-1.0",
		"prestimulus_duration": 705,
		"trial_number": 1,
		"correct": true
	},
	{
		"rt": null,
		"stimulus": "<p style='color:green; font-size:2em'><b>Correct!</b></p><p>RT: 114.29 ms</p>",
		"response": null,
		"trial_type": "html-keyboard-response",
		"trial_index": 6,
		"time_elapsed": 14672,
		"internal_node_id": "0.0-4.0-2.0"
	},
	{
		"rt": null,
		"stimulus": "<div style='font-size:5em'>+</div>",
		"response": null,
		"screen": "fixation_cross",
		"trial_type": "html-keyboard-response",
		"trial_index": 7,
		"time_elapsed": 15119,
		"internal_node_id": "0.0-4.0-0.1"
	},
	{
		"rt": 17.090000008465722,
		"stimulus": "stimuli/orange.png",
		"response": "arrowright",
		"screen": "stimulus",
		"correct_key": "arrowright",
		"trial_type": "image-keyboardmouse-response",
		"trial_index": 8,
		"time_elapsed": 15138,
		"internal_node_id": "0.0-4.0-1.1",
		"prestimulus_duration": 447,
		"trial_number": 2,
		"correct": true
	},
	{
		"rt": null,
		"stimulus": "<p style='color:green; font-size:2em'><b>Correct!</b></p><p>RT: 17.09 ms</p>",
		"response": null,
		"trial_type": "html-keyboard-response",
		"trial_index": 9,
		"time_elapsed": 15640,
		"internal_node_id": "0.0-4.0-2.1"
	},
	{
		"rt": null,
		"stimulus": "<div style='font-size:5em'>+</div>",
		"response": null,
		"screen": "fixation_cross",
		"trial_type": "html-keyboard-response",
		"trial_index": 10,
		"time_elapsed": 16279,
		"internal_node_id": "0.0-4.0-0.2"
	},
	{
		"rt": 51.040000005741604,
		"stimulus": "stimuli/orange.png",
		"response": "arrowleft",
		"screen": "stimulus",
		"correct_key": "arrowright",
		"trial_type": "image-keyboardmouse-response",
		"trial_index": 11,
		"time_elapsed": 16333,
		"internal_node_id": "0.0-4.0-1.2",
		"prestimulus_duration": 639,
		"trial_number": 3,
		"correct": false
	},
	{
		"rt": null,
		"stimulus": "<p style='color:red; font-size:2em'><b>Wrong.</b></p><p>RT: 51.04 ms</p>",
		"response": null,
		"trial_type": "html-keyboard-response",
		"trial_index": 12,
		"time_elapsed": 16836,
		"internal_node_id": "0.0-4.0-2.2"
	},
	{
		"rt": null,
		"stimulus": "<div style='font-size:5em'>+</div>",
		"response": null,
		"screen": "fixation_cross",
		"trial_type": "html-keyboard-response",
		"trial_index": 13,
		"time_elapsed": 17443,
		"internal_node_id": "0.0-4.0-0.3"
	},
	{
		"rt": 17.559999992954545,
		"stimulus": "stimuli/blue.png",
		"response": "arrowright",
		"screen": "stimulus",
		"correct_key": "arrowleft",
		"trial_type": "image-keyboardmouse-response",
		"trial_index": 14,
		"time_elapsed": 17465,
		"internal_node_id": "0.0-4.0-1.3",
		"prestimulus_duration": 607,
		"trial_number": 4,
		"correct": false
	},
	{
		"rt": null,
		"stimulus": "<p style='color:red; font-size:2em'><b>Wrong.</b></p><p>RT: 17.56 ms</p>",
		"response": null,
		"trial_type": "html-keyboard-response",
		"trial_index": 15,
		"time_elapsed": 17967,
		"internal_node_id": "0.0-4.0-2.3"
	},
	{
		"rt": 954.7400000010384,
		"stimulus": "<p><b>Overall, did you find this task easy?</b></p>",
		"slider_start": 50,
		"response": 50,
		"screen": "question_difficulty",
		"experiment_duration": 18010.56999999855,
		"trial_type": "html-slider-response",
		"trial_index": 16,
		"time_elapsed": 18926,
		"internal_node_id": "0.0-5.0",
		"interactions": "[]"
	}
]