[
	{
		"rt": 655.5750000406988,
		"stimulus": "    <p><b>Welcome to the experiment! Please read the information below.</b></p>     <hr>     <p><i>Here are the terms and conditions. Blabla something something.</i><p>     <p><i>Another paragraph blabla something else.</i><p>",
		"button_pressed": 0,
		"object": "information",
		"window_width": 2560,
		"window_height": 1297,
		"window_resolution": "2560x1297",
		"screen_width": 2560,
		"screen_height": 1440,
		"screen_resolution": "2560x1440",
		"screen_colordepth": 24,
		"screen_pixeldepth": 24,
		"screen_touchscreen": false,
		"browser_name": "Netscape",
		"browser_codename": "Mozilla",
		"browser_engine": "Gecko",
		"browser_version": "5.0 (Windows NT 10.0; Win64; x64) AppleWebKit/537.36 (KHTML, like Gecko) Chrome/88.0.4324.182 Safari/537.36",
		"browser": "Mozilla/5.0 (Windows NT 10.0; Win64; x64) AppleWebKit/537.36 (KHTML, like Gecko) Chrome/88.0.4324.182 Safari/537.36",
		"system_platform": "Win32",
		"system_language": "fr-FR",
		"trial_type": "html-button-response",
		"trial_index": 0,
		"time_elapsed": 672,
		"internal_node_id": "0.0-0.0",
		"participant_id": "20210218103524_hqm63e3foo7bxp3",
		"experiment_version": "0.0.1",
		"data_path": "data/20210218103524_hqm63e3foo7bxp3",
		"date": "Thu Feb 18 2021 10:35:24 GMT+0800 (Singapore Standard Time)"
	},
	{
		"rt": 579.4749999768101,
		"responses": "{\"Age\":\"\",\"Initials\":\"\"}",
		"object": "information",
		"trial_type": "survey-text",
		"trial_index": 1,
		"time_elapsed": 1260,
		"internal_node_id": "0.0-1.0",
		"participant_id": "20210218103524_hqm63e3foo7bxp3",
		"experiment_version": "0.0.1",
		"data_path": "data/20210218103524_hqm63e3foo7bxp3",
		"date": "Thu Feb 18 2021 10:35:24 GMT+0800 (Singapore Standard Time)"
	},
	{
		"rt": 1314.5800000056624,
		"responses": "{\"AlreadyPlayed\":\"No\"}",
		"question_order": "[0]",
		"object": "information",
		"trial_type": "survey-multi-choice",
		"trial_index": 2,
		"time_elapsed": 2576,
		"internal_node_id": "0.0-2.0",
		"participant_id": "20210218103524_hqm63e3foo7bxp3",
		"experiment_version": "0.0.1",
		"data_path": "data/20210218103524_hqm63e3foo7bxp3",
		"date": "Thu Feb 18 2021 10:35:24 GMT+0800 (Singapore Standard Time)"
	},
	{
		"rt": 971.2800000561401,
		"stimulus": "    <p>In this experiment, a circle will appear in the center of the screen.</p>     <p>If the circle is <strong>blue</strong>, press the letter B on the keyboard as fast as you can.</p>     <p>If the circle is <strong>orange</strong>, press the letter O as fast as you can.</p>     <div style='width: 100%;'>         <div style='float: left;'>             <img src='img/blue.png'></img>             <p class='small'><strong>Press the <- key</strong></p>         </div>         <div class='float: right;'>             <img src='img/orange.png'></img>             <p class='small'><strong>Press the -> key</strong></p>         </div>     </div>     <br><p>Are you ready?</p>",
		"button_pressed": 0,
		"trial_type": "html-button-response",
		"trial_index": 3,
		"time_elapsed": 3550,
		"internal_node_id": "0.0-3.0",
		"participant_id": "20210218103524_hqm63e3foo7bxp3",
		"experiment_version": "0.0.1",
		"data_path": "data/20210218103524_hqm63e3foo7bxp3",
		"date": "Thu Feb 18 2021 10:35:24 GMT+0800 (Singapore Standard Time)"
	},
	{
		"rt": null,
		"stimulus": "<div style='font-size:5em'>+</div>",
		"key_press": null,
		"object": "fixation_cross",
		"trial_type": "html-keyboard-response",
		"trial_index": 4,
		"time_elapsed": 4005,
		"internal_node_id": "0.0-4.0-0.0",
		"participant_id": "20210218103524_hqm63e3foo7bxp3",
		"experiment_version": "0.0.1",
		"data_path": "data/20210218103524_hqm63e3foo7bxp3",
		"date": "Thu Feb 18 2021 10:35:24 GMT+0800 (Singapore Standard Time)"
	},
	{
		"rt": 419.68499997165054,
		"stimulus": "stimuli/blue.png",
		"button_pressed": null,
		"key_press": 37,
		"answer": "leftarrow",
		"response_type": "Keyboard",
		"object": "stimulus",
		"correct_key": "leftarrow",
		"correct_button": "<-",
		"trial_type": "image-buttonkeyboard-response",
		"trial_index": 5,
		"time_elapsed": 4435,
		"internal_node_id": "0.0-4.0-1.0",
		"participant_id": "20210218103524_hqm63e3foo7bxp3",
		"experiment_version": "0.0.1",
		"data_path": "data/20210218103524_hqm63e3foo7bxp3",
		"date": "Thu Feb 18 2021 10:35:24 GMT+0800 (Singapore Standard Time)",
		"prestimulus_duration": 455,
		"trial_number": 1,
		"correct": true
	},
	{
		"rt": null,
		"stimulus": "<p style='color:green; font-size:2em'><b>Correct!</b></p><p>RT: 419.68 ms</p>",
		"key_press": null,
		"trial_type": "html-keyboard-response",
		"trial_index": 6,
		"time_elapsed": 4939,
		"internal_node_id": "0.0-4.0-2.0",
		"participant_id": "20210218103524_hqm63e3foo7bxp3",
		"experiment_version": "0.0.1",
		"data_path": "data/20210218103524_hqm63e3foo7bxp3",
		"date": "Thu Feb 18 2021 10:35:24 GMT+0800 (Singapore Standard Time)"
	},
	{
		"rt": null,
		"stimulus": "<div style='font-size:5em'>+</div>",
		"key_press": null,
		"object": "fixation_cross",
		"trial_type": "html-keyboard-response",
		"trial_index": 7,
		"time_elapsed": 5397,
		"internal_node_id": "0.0-4.0-0.1",
		"participant_id": "20210218103524_hqm63e3foo7bxp3",
		"experiment_version": "0.0.1",
		"data_path": "data/20210218103524_hqm63e3foo7bxp3",
		"date": "Thu Feb 18 2021 10:35:24 GMT+0800 (Singapore Standard Time)"
	},
	{
		"rt": 245.50999997882172,
		"stimulus": "stimuli/orange.png",
		"button_pressed": null,
		"key_press": 37,
		"answer": "leftarrow",
		"response_type": "Keyboard",
		"object": "stimulus",
		"correct_key": "rightarrow",
		"correct_button": "->",
		"trial_type": "image-buttonkeyboard-response",
		"trial_index": 8,
		"time_elapsed": 5644,
		"internal_node_id": "0.0-4.0-1.1",
		"participant_id": "20210218103524_hqm63e3foo7bxp3",
		"experiment_version": "0.0.1",
		"data_path": "data/20210218103524_hqm63e3foo7bxp3",
		"date": "Thu Feb 18 2021 10:35:24 GMT+0800 (Singapore Standard Time)",
		"prestimulus_duration": 458,
		"trial_number": 2,
		"correct": false
	},
	{
		"rt": null,
		"stimulus": "<p style='color:red; font-size:2em'><b>Wrong.</b></p><p>RT: 245.51 ms</p>",
		"key_press": null,
		"trial_type": "html-keyboard-response",
		"trial_index": 9,
		"time_elapsed": 6146,
		"internal_node_id": "0.0-4.0-2.1",
		"participant_id": "20210218103524_hqm63e3foo7bxp3",
		"experiment_version": "0.0.1",
		"data_path": "data/20210218103524_hqm63e3foo7bxp3",
		"date": "Thu Feb 18 2021 10:35:24 GMT+0800 (Singapore Standard Time)"
	},
	{
		"rt": null,
		"stimulus": "<div style='font-size:5em'>+</div>",
		"key_press": null,
		"object": "fixation_cross",
		"trial_type": "html-keyboard-response",
		"trial_index": 10,
		"time_elapsed": 6767,
		"internal_node_id": "0.0-4.0-0.2",
		"participant_id": "20210218103524_hqm63e3foo7bxp3",
		"experiment_version": "0.0.1",
		"data_path": "data/20210218103524_hqm63e3foo7bxp3",
		"date": "Thu Feb 18 2021 10:35:24 GMT+0800 (Singapore Standard Time)"
	},
	{
		"rt": 250.2000000094995,
		"stimulus": "stimuli/orange.png",
		"button_pressed": null,
		"key_press": 39,
		"answer": "rightarrow",
		"response_type": "Keyboard",
		"object": "stimulus",
		"correct_key": "rightarrow",
		"correct_button": "->",
		"trial_type": "image-buttonkeyboard-response",
		"trial_index": 11,
		"time_elapsed": 7020,
		"internal_node_id": "0.0-4.0-1.2",
		"participant_id": "20210218103524_hqm63e3foo7bxp3",
		"experiment_version": "0.0.1",
		"data_path": "data/20210218103524_hqm63e3foo7bxp3",
		"date": "Thu Feb 18 2021 10:35:24 GMT+0800 (Singapore Standard Time)",
		"prestimulus_duration": 621,
		"trial_number": 3,
		"correct": true
	},
	{
		"rt": null,
		"stimulus": "<p style='color:green; font-size:2em'><b>Correct!</b></p><p>RT: 250.20 ms</p>",
		"key_press": null,
		"trial_type": "html-keyboard-response",
		"trial_index": 12,
		"time_elapsed": 7522,
		"internal_node_id": "0.0-4.0-2.2",
		"participant_id": "20210218103524_hqm63e3foo7bxp3",
		"experiment_version": "0.0.1",
		"data_path": "data/20210218103524_hqm63e3foo7bxp3",
		"date": "Thu Feb 18 2021 10:35:24 GMT+0800 (Singapore Standard Time)"
	},
	{
		"rt": null,
		"stimulus": "<div style='font-size:5em'>+</div>",
		"key_press": null,
		"object": "fixation_cross",
		"trial_type": "html-keyboard-response",
		"trial_index": 13,
		"time_elapsed": 8070,
		"internal_node_id": "0.0-4.0-0.3",
		"participant_id": "20210218103524_hqm63e3foo7bxp3",
		"experiment_version": "0.0.1",
		"data_path": "data/20210218103524_hqm63e3foo7bxp3",
		"date": "Thu Feb 18 2021 10:35:24 GMT+0800 (Singapore Standard Time)"
	},
	{
		"rt": 335.6049999711104,
		"stimulus": "stimuli/blue.png",
		"button_pressed": null,
		"key_press": 39,
		"answer": "rightarrow",
		"response_type": "Keyboard",
		"object": "stimulus",
		"correct_key": "leftarrow",
		"correct_button": "<-",
		"trial_type": "image-buttonkeyboard-response",
		"trial_index": 14,
		"time_elapsed": 8408,
		"internal_node_id": "0.0-4.0-1.3",
		"participant_id": "20210218103524_hqm63e3foo7bxp3",
		"experiment_version": "0.0.1",
		"data_path": "data/20210218103524_hqm63e3foo7bxp3",
		"date": "Thu Feb 18 2021 10:35:24 GMT+0800 (Singapore Standard Time)",
		"prestimulus_duration": 548,
		"trial_number": 4,
		"correct": false
	},
	{
		"rt": null,
		"stimulus": "<p style='color:red; font-size:2em'><b>Wrong.</b></p><p>RT: 335.60 ms</p>",
		"key_press": null,
		"trial_type": "html-keyboard-response",
		"trial_index": 15,
		"time_elapsed": 8909,
		"internal_node_id": "0.0-4.0-2.3",
		"participant_id": "20210218103524_hqm63e3foo7bxp3",
		"experiment_version": "0.0.1",
		"data_path": "data/20210218103524_hqm63e3foo7bxp3",
		"date": "Thu Feb 18 2021 10:35:24 GMT+0800 (Singapore Standard Time)"
	},
	{
		"rt": 3463.485000014771,
		"stimulus": "<p><b>Overall, did you find this task easy?</b></p>",
		"slider_start": 50,
		"response": 61,
		"object": "information",
		"trial_type": "html-slider-response",
		"trial_index": 16,
		"time_elapsed": 12373,
		"internal_node_id": "0.0-5.0",
		"participant_id": "20210218103524_hqm63e3foo7bxp3",
		"experiment_version": "0.0.1",
		"data_path": "data/20210218103524_hqm63e3foo7bxp3",
		"date": "Thu Feb 18 2021 10:35:24 GMT+0800 (Singapore Standard Time)"
	},
	{
		"rt": 1116.6100000264123,
		"stimulus": "<p><b>Thank you for participating!</b> Here are your results:</p><hr><p style='color:rgb(76,175,80);'>You responded correctly on <b>50.00%</b> of the trials.</p><p style='color:rgb(233,30,99);'>Your average response time was <b>334.94</b> ms.</p><hr><p> Don't hesitate to spread the word and share this experiment, science appreciates :)</p>",
		"button_pressed": 0,
		"object": "fixation_cross",
		"experiment_duration": 12680.595000041649,
		"trial_type": "html-button-response",
		"trial_index": 17,
		"time_elapsed": 13492,
		"internal_node_id": "0.0-6.0",
		"participant_id": "20210218103524_hqm63e3foo7bxp3",
		"experiment_version": "0.0.1",
		"data_path": "data/20210218103524_hqm63e3foo7bxp3",
		"date": "Thu Feb 18 2021 10:35:24 GMT+0800 (Singapore Standard Time)"
	}
]