[
	{
		"rt": 747.2500000149012,
		"stimulus": "    <p><b>Welcome to the experiment! Please read the information below.</b></p>     <hr>     <p><i>Here are the terms and conditions. Blabla something something.</i><p>     <p><i>Another paragraph blabla something else.</i><p>",
		"button_pressed": 0,
		"screen": "session_info",
		"participant_id": "20210218_125739_moxv5",
		"experiment_version": "0.0.1",
		"datetime": "18/02/2021 12:57:39",
		"date": "20210218",
		"time": "125739",
		"date_timezone": 8,
		"window_width": 2560,
		"window_height": 1297,
		"window_resolution": "2560x1297",
		"screen_width": 2560,
		"screen_height": 1440,
		"screen_resolution": "2560x1440",
		"screen_colordepth": 24,
		"screen_pixeldepth": 24,
		"screen_touchscreen": false,
		"browser_name": "Netscape",
		"browser_codename": "Mozilla",
		"browser_engine": "Gecko",
		"browser_version": "5.0 (Windows NT 10.0; Win64; x64) AppleWebKit/537.36 (KHTML, like Gecko) Chrome/88.0.4324.182 Safari/537.36",
		"browser": "Mozilla/5.0 (Windows NT 10.0; Win64; x64) AppleWebKit/537.36 (KHTML, like Gecko) Chrome/88.0.4324.182 Safari/537.36",
		"system_platform": "Win32",
		"system_language": "fr-FR",
		"trial_type": "html-button-response",
		"trial_index": 0,
		"time_elapsed": 764,
		"internal_node_id": "0.0-0.0"
	},
	{
		"rt": 6639.1249999869615,
		"responses": "{\"Age\":\"sd\",\"Initials\":\"DM\"}",
		"screen": "participant_info_general",
		"trial_type": "survey-text",
		"trial_index": 1,
		"time_elapsed": 7409,
		"internal_node_id": "0.0-1.0"
	},
	{
		"rt": 6795.710000034887,
		"responses": "{\"AlreadyPlayed\":\"Yes\"}",
		"question_order": "[0]",
		"screen": "participant_info_session",
		"trial_type": "survey-multi-choice",
		"trial_index": 2,
		"time_elapsed": 14206,
		"internal_node_id": "0.0-2.0"
	},
	{
		"rt": 4257.745000009891,
		"stimulus": "    <p>In this experiment, a circle will appear in the center of the screen.</p>     <p>If the circle is <strong>blue</strong>, press the letter B on the keyboard as fast as you can.</p>     <p>If the circle is <strong>orange</strong>, press the letter O as fast as you can.</p>     <div style='width: 100%;'>         <div style='float: left;'>             <img src='img/blue.png'></img>             <p class='small'><strong>Press the <- key</strong></p>         </div>         <div class='float: right;'>             <img src='img/orange.png'></img>             <p class='small'><strong>Press the -> key</strong></p>         </div>     </div>     <br><p>Are you ready?</p>",
		"button_pressed": 0,
		"trial_type": "html-button-response",
		"trial_index": 3,
		"time_elapsed": 18467,
		"internal_node_id": "0.0-3.0"
	},
	{
		"rt": null,
		"stimulus": "<div style='font-size:5em'>+</div>",
		"key_press": null,
		"screen": "fixation_cross",
		"trial_type": "html-keyboard-response",
		"trial_index": 4,
		"time_elapsed": 18835,
		"internal_node_id": "0.0-4.0-0.0"
	},
	{
		"rt": 384.71000001300126,
		"stimulus": "stimuli/orange.png",
		"button_pressed": null,
		"key_press": 39,
		"answer": "rightarrow",
		"response_type": "Keyboard",
		"screen": "stimulus",
		"correct_key": "rightarrow",
		"correct_button": "->",
		"trial_type": "image-buttonkeyboard-response",
		"trial_index": 5,
		"time_elapsed": 19227,
		"internal_node_id": "0.0-4.0-1.0",
		"prestimulus_duration": 368,
		"trial_number": 1,
		"correct": true
	},
	{
		"rt": null,
		"stimulus": "<p style='color:green; font-size:2em'><b>Correct!</b></p><p>RT: 384.71 ms</p>",
		"key_press": null,
		"trial_type": "html-keyboard-response",
		"trial_index": 6,
		"time_elapsed": 19731,
		"internal_node_id": "0.0-4.0-2.0"
	},
	{
		"rt": null,
		"stimulus": "<div style='font-size:5em'>+</div>",
		"key_press": null,
		"screen": "fixation_cross",
		"trial_type": "html-keyboard-response",
		"trial_index": 7,
		"time_elapsed": 20387,
		"internal_node_id": "0.0-4.0-0.1"
	},
	{
		"rt": 92.96999999787658,
		"stimulus": "stimuli/blue.png",
		"button_pressed": null,
		"key_press": 37,
		"answer": "leftarrow",
		"response_type": "Keyboard",
		"screen": "stimulus",
		"correct_key": "leftarrow",
		"correct_button": "<-",
		"trial_type": "image-buttonkeyboard-response",
		"trial_index": 8,
		"time_elapsed": 20483,
		"internal_node_id": "0.0-4.0-1.1",
		"prestimulus_duration": 656,
		"trial_number": 2,
		"correct": true
	},
	{
		"rt": null,
		"stimulus": "<p style='color:green; font-size:2em'><b>Correct!</b></p><p>RT: 92.97 ms</p>",
		"key_press": null,
		"trial_type": "html-keyboard-response",
		"trial_index": 9,
		"time_elapsed": 20986,
		"internal_node_id": "0.0-4.0-2.1"
	},
	{
		"rt": null,
		"stimulus": "<div style='font-size:5em'>+</div>",
		"key_press": null,
		"screen": "fixation_cross",
		"trial_type": "html-keyboard-response",
		"trial_index": 10,
		"time_elapsed": 21457,
		"internal_node_id": "0.0-4.0-0.2"
	},
	{
		"rt": 523.5649999813177,
		"stimulus": "stimuli/orange.png",
		"button_pressed": null,
		"key_press": 37,
		"answer": "leftarrow",
		"response_type": "Keyboard",
		"screen": "stimulus",
		"correct_key": "rightarrow",
		"correct_button": "->",
		"trial_type": "image-buttonkeyboard-response",
		"trial_index": 11,
		"time_elapsed": 21983,
		"internal_node_id": "0.0-4.0-1.2",
		"prestimulus_duration": 471,
		"trial_number": 3,
		"correct": false
	},
	{
		"rt": null,
		"stimulus": "<p style='color:red; font-size:2em'><b>Wrong.</b></p><p>RT: 523.56 ms</p>",
		"key_press": null,
		"trial_type": "html-keyboard-response",
		"trial_index": 12,
		"time_elapsed": 22485,
		"internal_node_id": "0.0-4.0-2.2"
	},
	{
		"rt": null,
		"stimulus": "<div style='font-size:5em'>+</div>",
		"key_press": null,
		"screen": "fixation_cross",
		"trial_type": "html-keyboard-response",
		"trial_index": 13,
		"time_elapsed": 22800,
		"internal_node_id": "0.0-4.0-0.3"
	},
	{
		"rt": 307.7950000297278,
		"stimulus": "stimuli/blue.png",
		"button_pressed": null,
		"key_press": 37,
		"answer": "leftarrow",
		"response_type": "Keyboard",
		"screen": "stimulus",
		"correct_key": "leftarrow",
		"correct_button": "<-",
		"trial_type": "image-buttonkeyboard-response",
		"trial_index": 14,
		"time_elapsed": 23110,
		"internal_node_id": "0.0-4.0-1.3",
		"prestimulus_duration": 315,
		"trial_number": 4,
		"correct": true
	},
	{
		"rt": null,
		"stimulus": "<p style='color:green; font-size:2em'><b>Correct!</b></p><p>RT: 307.80 ms</p>",
		"key_press": null,
		"trial_type": "html-keyboard-response",
		"trial_index": 15,
		"time_elapsed": 23613,
		"internal_node_id": "0.0-4.0-2.3"
	},
	{
		"rt": 2199.9850000138395,
		"stimulus": "<p><b>Overall, did you find this task easy?</b></p>",
		"slider_start": 50,
		"response": 66,
		"screen": "question_difficulty",
		"trial_type": "html-slider-response",
		"trial_index": 16,
		"time_elapsed": 25816,
		"internal_node_id": "0.0-5.0"
	},
	{
		"rt": 16176.28000001423,
		"stimulus": "<p><b>Thank you for participating!</b> Here are your results:</p><hr><p style='color:rgb(76,175,80);'>You responded correctly on <b>75.00%</b> of the trials.</p><p style='color:rgb(233,30,99);'>Your average response time was <b>261.83</b> ms.</p><hr><p> Don't hesitate to spread the word and share this experiment, science appreciates :)</p>",
		"button_pressed": 0,
		"screen": "end_screen",
		"experiment_duration": 26312.570000009146,
		"trial_type": "html-button-response",
		"trial_index": 17,
		"time_elapsed": 41994,
		"internal_node_id": "0.0-6.0"
	}
]