[
	{
		"rt": 1063.1799999973737,
		"stimulus": "    <p><b>Welcome to the experiment! Please read the information below.</b></p>     <hr>     <p><i>Here are the terms and conditions. Blabla something something.</i><p>     <p><i>Another paragraph blabla something else.</i><p>",
		"button_pressed": 0,
		"screen": "session_info",
		"participant_id": "20210218_110841_clvjv",
		"experiment_version": "0.0.1",
		"data_path": "data/20210218_110841_clvjv",
		"datetime": {},
		"date": "20210218",
		"time": "110841",
		"date_timezone": -480,
		"window_width": 2560,
		"window_height": 1297,
		"window_resolution": "2560x1297",
		"screen_width": 2560,
		"screen_height": 1440,
		"screen_resolution": "2560x1440",
		"screen_colordepth": 24,
		"screen_pixeldepth": 24,
		"screen_touchscreen": false,
		"browser_name": "Netscape",
		"browser_codename": "Mozilla",
		"browser_engine": "Gecko",
		"browser_version": "5.0 (Windows NT 10.0; Win64; x64) AppleWebKit/537.36 (KHTML, like Gecko) Chrome/88.0.4324.182 Safari/537.36",
		"browser": "Mozilla/5.0 (Windows NT 10.0; Win64; x64) AppleWebKit/537.36 (KHTML, like Gecko) Chrome/88.0.4324.182 Safari/537.36",
		"system_platform": "Win32",
		"system_language": "fr-FR",
		"trial_type": "html-button-response",
		"trial_index": 0,
		"time_elapsed": 1080,
		"internal_node_id": "0.0-0.0"
	},
	{
		"rt": 2773.909999988973,
		"responses": "{\"Age\":\"sqedf\",\"Initials\":\"sfg\"}",
		"screen": "participant_info_general",
		"trial_type": "survey-text",
		"trial_index": 1,
		"time_elapsed": 3860,
		"internal_node_id": "0.0-1.0"
	},
	{
		"rt": 1481.3799999537878,
		"responses": "{\"AlreadyPlayed\":\"No\"}",
		"question_order": "[0]",
		"screen": "participant_info_session",
		"trial_type": "survey-multi-choice",
		"trial_index": 2,
		"time_elapsed": 5343,
		"internal_node_id": "0.0-2.0"
	},
	{
		"rt": 1093.7600000179373,
		"stimulus": "    <p>In this experiment, a circle will appear in the center of the screen.</p>     <p>If the circle is <strong>blue</strong>, press the letter B on the keyboard as fast as you can.</p>     <p>If the circle is <strong>orange</strong>, press the letter O as fast as you can.</p>     <div style='width: 100%;'>         <div style='float: left;'>             <img src='img/blue.png'></img>             <p class='small'><strong>Press the <- key</strong></p>         </div>         <div class='float: right;'>             <img src='img/orange.png'></img>             <p class='small'><strong>Press the -> key</strong></p>         </div>     </div>     <br><p>Are you ready?</p>",
		"button_pressed": 0,
		"trial_type": "html-button-response",
		"trial_index": 3,
		"time_elapsed": 6442,
		"internal_node_id": "0.0-3.0"
	},
	{
		"rt": null,
		"stimulus": "<div style='font-size:5em'>+</div>",
		"key_press": null,
		"screen": "fixation_cross",
		"trial_type": "html-keyboard-response",
		"trial_index": 4,
		"time_elapsed": 6758,
		"internal_node_id": "0.0-4.0-0.0"
	},
	{
		"rt": 279.8450000118464,
		"stimulus": "stimuli/orange.png",
		"button_pressed": null,
		"key_press": 39,
		"answer": "rightarrow",
		"response_type": "Keyboard",
		"screen": "stimulus",
		"correct_key": "rightarrow",
		"correct_button": "->",
		"trial_type": "image-buttonkeyboard-response",
		"trial_index": 5,
		"time_elapsed": 7060,
		"internal_node_id": "0.0-4.0-1.0",
		"prestimulus_duration": 316,
		"trial_number": 1,
		"correct": true
	},
	{
		"rt": null,
		"stimulus": "<p style='color:green; font-size:2em'><b>Correct!</b></p><p>RT: 279.85 ms</p>",
		"key_press": null,
		"trial_type": "html-keyboard-response",
		"trial_index": 6,
		"time_elapsed": 7563,
		"internal_node_id": "0.0-4.0-2.0"
	},
	{
		"rt": null,
		"stimulus": "<div style='font-size:5em'>+</div>",
		"key_press": null,
		"screen": "fixation_cross",
		"trial_type": "html-keyboard-response",
		"trial_index": 7,
		"time_elapsed": 8066,
		"internal_node_id": "0.0-4.0-0.1"
	},
	{
		"rt": 226.8550000153482,
		"stimulus": "stimuli/blue.png",
		"button_pressed": null,
		"key_press": 39,
		"answer": "rightarrow",
		"response_type": "Keyboard",
		"screen": "stimulus",
		"correct_key": "leftarrow",
		"correct_button": "<-",
		"trial_type": "image-buttonkeyboard-response",
		"trial_index": 8,
		"time_elapsed": 8295,
		"internal_node_id": "0.0-4.0-1.1",
		"prestimulus_duration": 503,
		"trial_number": 2,
		"correct": false
	},
	{
		"rt": null,
		"stimulus": "<p style='color:red; font-size:2em'><b>Wrong.</b></p><p>RT: 226.86 ms</p>",
		"key_press": null,
		"trial_type": "html-keyboard-response",
		"trial_index": 9,
		"time_elapsed": 8797,
		"internal_node_id": "0.0-4.0-2.1"
	},
	{
		"rt": null,
		"stimulus": "<div style='font-size:5em'>+</div>",
		"key_press": null,
		"screen": "fixation_cross",
		"trial_type": "html-keyboard-response",
		"trial_index": 10,
		"time_elapsed": 9461,
		"internal_node_id": "0.0-4.0-0.2"
	},
	{
		"rt": 227.25499997613952,
		"stimulus": "stimuli/blue.png",
		"button_pressed": null,
		"key_press": 37,
		"answer": "leftarrow",
		"response_type": "Keyboard",
		"screen": "stimulus",
		"correct_key": "leftarrow",
		"correct_button": "<-",
		"trial_type": "image-buttonkeyboard-response",
		"trial_index": 11,
		"time_elapsed": 9691,
		"internal_node_id": "0.0-4.0-1.2",
		"prestimulus_duration": 664,
		"trial_number": 3,
		"correct": true
	},
	{
		"rt": null,
		"stimulus": "<p style='color:green; font-size:2em'><b>Correct!</b></p><p>RT: 227.25 ms</p>",
		"key_press": null,
		"trial_type": "html-keyboard-response",
		"trial_index": 12,
		"time_elapsed": 10194,
		"internal_node_id": "0.0-4.0-2.2"
	},
	{
		"rt": null,
		"stimulus": "<div style='font-size:5em'>+</div>",
		"key_press": null,
		"screen": "fixation_cross",
		"trial_type": "html-keyboard-response",
		"trial_index": 13,
		"time_elapsed": 10797,
		"internal_node_id": "0.0-4.0-0.3"
	},
	{
		"rt": 271.2750000064261,
		"stimulus": "stimuli/orange.png",
		"button_pressed": null,
		"key_press": 37,
		"answer": "leftarrow",
		"response_type": "Keyboard",
		"screen": "stimulus",
		"correct_key": "rightarrow",
		"correct_button": "->",
		"trial_type": "image-buttonkeyboard-response",
		"trial_index": 14,
		"time_elapsed": 11070,
		"internal_node_id": "0.0-4.0-1.3",
		"prestimulus_duration": 603,
		"trial_number": 4,
		"correct": false
	},
	{
		"rt": null,
		"stimulus": "<p style='color:red; font-size:2em'><b>Wrong.</b></p><p>RT: 271.28 ms</p>",
		"key_press": null,
		"trial_type": "html-keyboard-response",
		"trial_index": 15,
		"time_elapsed": 11572,
		"internal_node_id": "0.0-4.0-2.3"
	},
	{
		"rt": 1777.8950000065379,
		"stimulus": "<p><b>Overall, did you find this task easy?</b></p>",
		"slider_start": 50,
		"response": 69,
		"screen": "information",
		"trial_type": "html-slider-response",
		"trial_index": 16,
		"time_elapsed": 13353,
		"internal_node_id": "0.0-5.0"
	},
	{
		"rt": 1555.7900000130758,
		"stimulus": "<p><b>Thank you for participating!</b> Here are your results:</p><hr><p style='color:rgb(76,175,80);'>You responded correctly on <b>50.00%</b> of the trials.</p><p style='color:rgb(233,30,99);'>Your average response time was <b>253.55</b> ms.</p><hr><p> Don't hesitate to spread the word and share this experiment, science appreciates :)</p>",
		"button_pressed": 0,
		"screen": "fixation_cross",
		"experiment_duration": 13662.520000012591,
		"trial_type": "html-button-response",
		"trial_index": 17,
		"time_elapsed": 14910,
		"internal_node_id": "0.0-6.0"
	}
]