[
	{
		"rt": 685.2150000049733,
		"stimulus": "    <p><b>Welcome to the experiment! Please read the information below.</b></p>     <hr>     <p><i>Here are the terms and conditions. Blabla something something.</i><p>     <p><i>Another paragraph blabla something else.</i><p>",
		"response": 0,
		"screen": "session_info",
		"participant_id": "20210228_230700_bjkr9",
		"experiment_version": "0.0.1",
		"datetime": "28/02/2021 23:07:00",
		"date": "20210228",
		"time": "230700",
		"date_timezone": 8,
		"window_width": 1556,
		"window_height": 985,
		"window_resolution": "1556x985",
		"screen_width": 1920,
		"screen_height": 1080,
		"screen_resolution": "1920x1080",
		"screen_colordepth": 24,
		"screen_pixeldepth": 24,
		"screen_touchscreen": false,
		"browser_name": "Netscape",
		"browser_codename": "Mozilla",
		"browser_engine": "Gecko",
		"browser_version": "5.0 (X11; Linux x86_64) AppleWebKit/537.36 (KHTML, like Gecko) Chrome/88.0.4324.96 Safari/537.36",
		"browser": "Mozilla/5.0 (X11; Linux x86_64) AppleWebKit/537.36 (KHTML, like Gecko) Chrome/88.0.4324.96 Safari/537.36",
		"system_platform": "Linux x86_64",
		"system_language": "en-GB",
		"trial_type": "html-button-response",
		"trial_index": 0,
		"time_elapsed": 688,
		"internal_node_id": "0.0-0.0"
	},
	{
		"rt": 1914.0499999921303,
		"response": {
			"Age": "a",
			"Initials": "a"
		},
		"screen": "participant_info_general",
		"trial_type": "survey-text",
		"trial_index": 1,
		"time_elapsed": 2611,
		"internal_node_id": "0.0-1.0"
	},
	{
		"rt": 2099.9900000024354,
		"response": {
			"AlreadyPlayed": "No"
		},
		"question_order": [
			0
		],
		"screen": "participant_info_session",
		"trial_type": "survey-multi-choice",
		"trial_index": 2,
		"time_elapsed": 4715,
		"internal_node_id": "0.0-2.0"
	},
	{
		"rt": 1611.9550000003073,
		"stimulus": "    <p>In this experiment, a circle will appear in the center of the screen.</p>     <p>If the circle is <strong>blue</strong>, press the left arrow key on the keyboard as fast as you can.</p>     <p>If the circle is <strong>orange</strong>, press the right arrow key as fast as you can.</p>     <div style='width: 100%;'>         <div style='float: left;'>             <img src='img/blue.png'></img>             <p class='small'><strong>Press the left arrow key</strong></p>         </div>         <div class='float: right;'>             <img src='img/orange.png'></img>             <p class='small'><strong>Press the right arrow key</strong></p>         </div>     </div>     <br><p>Are you ready?</p>",
		"response": 0,
		"trial_type": "html-button-response",
		"trial_index": 3,
		"time_elapsed": 6343,
		"internal_node_id": "0.0-3.0"
	},
	{
		"rt": null,
		"stimulus": "<div style='font-size:5em'>+</div>",
		"response": null,
		"screen": "fixation_cross",
		"trial_type": "html-keyboard-response",
		"trial_index": 4,
		"time_elapsed": 6622,
		"internal_node_id": "0.0-4.0-0.0"
	},
	{
		"rt": 266.1800000059884,
		"stimulus": "stimuli/orange.png",
		"response": "arrowright",
		"screen": "stimulus",
		"correct_key": "arrowright",
		"trial_type": "image-keyboardmouse-response",
		"trial_index": 5,
		"time_elapsed": 6895,
		"internal_node_id": "0.0-4.0-1.0",
		"prestimulus_duration": 279,
		"trial_number": 1,
		"correct": true
	},
	{
		"rt": null,
		"stimulus": "<p style='color:green; font-size:2em'><b>Correct!</b></p><p>RT: 266.18 ms</p>",
		"response": null,
		"trial_type": "html-keyboard-response",
		"trial_index": 6,
		"time_elapsed": 7397,
		"internal_node_id": "0.0-4.0-2.0"
	},
	{
		"rt": null,
		"stimulus": "<div style='font-size:5em'>+</div>",
		"response": null,
		"screen": "fixation_cross",
		"trial_type": "html-keyboard-response",
		"trial_index": 7,
		"time_elapsed": 7705,
		"internal_node_id": "0.0-4.0-0.1"
	},
	{
		"rt": 135.8849999960512,
		"stimulus": "stimuli/blue.png",
		"response": "arrowright",
		"screen": "stimulus",
		"correct_key": "arrowleft",
		"trial_type": "image-keyboardmouse-response",
		"trial_index": 8,
		"time_elapsed": 7844,
		"internal_node_id": "0.0-4.0-1.1",
		"prestimulus_duration": 308,
		"trial_number": 2,
		"correct": false
	},
	{
		"rt": null,
		"stimulus": "<p style='color:red; font-size:2em'><b>Wrong.</b></p><p>RT: 135.88 ms</p>",
		"response": null,
		"trial_type": "html-keyboard-response",
		"trial_index": 9,
		"time_elapsed": 8347,
		"internal_node_id": "0.0-4.0-2.1"
	},
	{
		"rt": null,
		"stimulus": "<div style='font-size:5em'>+</div>",
		"response": null,
		"screen": "fixation_cross",
		"trial_type": "html-keyboard-response",
		"trial_index": 10,
		"time_elapsed": 8954,
		"internal_node_id": "0.0-4.0-0.2"
	},
	{
		"rt": 54.95000000519212,
		"stimulus": "stimuli/blue.png",
		"response": "arrowleft",
		"screen": "stimulus",
		"correct_key": "arrowleft",
		"trial_type": "image-keyboardmouse-response",
		"trial_index": 11,
		"time_elapsed": 9011,
		"internal_node_id": "0.0-4.0-1.2",
		"prestimulus_duration": 607,
		"trial_number": 3,
		"correct": true
	},
	{
		"rt": null,
		"stimulus": "<p style='color:green; font-size:2em'><b>Correct!</b></p><p>RT: 54.95 ms</p>",
		"response": null,
		"trial_type": "html-keyboard-response",
		"trial_index": 12,
		"time_elapsed": 9513,
		"internal_node_id": "0.0-4.0-2.2"
	},
	{
		"rt": null,
		"stimulus": "<div style='font-size:5em'>+</div>",
		"response": null,
		"screen": "fixation_cross",
		"trial_type": "html-keyboard-response",
		"trial_index": 13,
		"time_elapsed": 9974,
		"internal_node_id": "0.0-4.0-0.3"
	},
	{
		"rt": 2.2449999960372224,
		"stimulus": "stimuli/orange.png",
		"response": "arrowleft",
		"screen": "stimulus",
		"correct_key": "arrowright",
		"trial_type": "image-keyboardmouse-response",
		"trial_index": 14,
		"time_elapsed": 9979,
		"internal_node_id": "0.0-4.0-1.3",
		"prestimulus_duration": 461,
		"trial_number": 4,
		"correct": false
	},
	{
		"rt": null,
		"stimulus": "<p style='color:red; font-size:2em'><b>Wrong.</b></p><p>RT: 2.24 ms</p>",
		"response": null,
		"trial_type": "html-keyboard-response",
		"trial_index": 15,
		"time_elapsed": 10481,
		"internal_node_id": "0.0-4.0-2.3"
	},
	{
		"rt": 1875.4950000002282,
		"stimulus": "<p><b>Overall, did you find this task easy?</b></p>",
		"slider_start": 50,
		"response": 50,
		"screen": "question_difficulty",
		"experiment_duration": 10535.990000003949,
		"trial_type": "html-slider-response",
		"trial_index": 16,
		"time_elapsed": 12359,
		"internal_node_id": "0.0-5.0",
		"interactions": "[]"
	}
]