[
	{
		"rt": 45822.840000037104,
		"stimulus": "    <p><b>Welcome to the experiment! Please read the information below.</b></p>     <hr>     <p><i>Here are the terms and conditions. Blabla something something.</i><p>     <p><i>Another paragraph blabla something else.</i><p>",
		"button_pressed": 0,
		"screen": "session_info",
		"participant_id": "20210218_190553_v8olj",
		"experiment_version": "0.0.1",
		"datetime": "18/02/2021 19:05:53",
		"date": "20210218",
		"time": "190553",
		"date_timezone": 8,
		"window_width": 2005,
		"window_height": 1297,
		"window_resolution": "2005x1297",
		"screen_width": 2560,
		"screen_height": 1440,
		"screen_resolution": "2560x1440",
		"screen_colordepth": 24,
		"screen_pixeldepth": 24,
		"screen_touchscreen": false,
		"browser_name": "Netscape",
		"browser_codename": "Mozilla",
		"browser_engine": "Gecko",
		"browser_version": "5.0 (Windows NT 10.0; Win64; x64) AppleWebKit/537.36 (KHTML, like Gecko) Chrome/88.0.4324.182 Safari/537.36",
		"browser": "Mozilla/5.0 (Windows NT 10.0; Win64; x64) AppleWebKit/537.36 (KHTML, like Gecko) Chrome/88.0.4324.182 Safari/537.36",
		"system_platform": "Win32",
		"system_language": "fr-FR",
		"trial_type": "html-button-response",
		"trial_index": 0,
		"time_elapsed": 45828,
		"internal_node_id": "0.0-0.0"
	},
	{
		"rt": 20080.554999993183,
		"responses": "{\"Age\":\"ggh\",\"Initials\":\"kh\"}",
		"screen": "participant_info_general",
		"trial_type": "survey-text",
		"trial_index": 1,
		"time_elapsed": 65917,
		"internal_node_id": "0.0-1.0"
	},
	{
		"rt": 8251.285000005737,
		"responses": "{\"AlreadyPlayed\":\"No\"}",
		"question_order": "[0]",
		"screen": "participant_info_session",
		"trial_type": "survey-multi-choice",
		"trial_index": 2,
		"time_elapsed": 74170,
		"internal_node_id": "0.0-2.0"
	},
	{
		"rt": 1824.7949999640696,
		"stimulus": "    <p>In this experiment, a circle will appear in the center of the screen.</p>     <p>If the circle is <strong>blue</strong>, press the letter B on the keyboard as fast as you can.</p>     <p>If the circle is <strong>orange</strong>, press the letter O as fast as you can.</p>     <div style='width: 100%;'>         <div style='float: left;'>             <img src='img/blue.png'></img>             <p class='small'><strong>Press the <- key</strong></p>         </div>         <div class='float: right;'>             <img src='img/orange.png'></img>             <p class='small'><strong>Press the -> key</strong></p>         </div>     </div>     <br><p>Are you ready?</p>",
		"button_pressed": 0,
		"trial_type": "html-button-response",
		"trial_index": 3,
		"time_elapsed": 75999,
		"internal_node_id": "0.0-3.0"
	},
	{
		"rt": null,
		"stimulus": "<div style='font-size:5em'>+</div>",
		"key_press": null,
		"screen": "fixation_cross",
		"trial_type": "html-keyboard-response",
		"trial_index": 4,
		"time_elapsed": 76547,
		"internal_node_id": "0.0-4.0-0.0"
	},
	{
		"rt": 3971.709999954328,
		"stimulus": "stimuli/orange.png",
		"button_pressed": 1,
		"key_press": null,
		"answer": "->",
		"response_type": "Button",
		"screen": "stimulus",
		"correct_key": "rightarrow",
		"correct_button": "->",
		"trial_type": "image-buttonkeyboard-response",
		"trial_index": 5,
		"time_elapsed": 80524,
		"internal_node_id": "0.0-4.0-1.0",
		"prestimulus_duration": 548,
		"trial_number": 1,
		"correct": true
	},
	{
		"rt": null,
		"stimulus": "<p style='color:green; font-size:2em'><b>Correct!</b></p><p>RT: 3971.71 ms</p>",
		"key_press": null,
		"trial_type": "html-keyboard-response",
		"trial_index": 6,
		"time_elapsed": 81025,
		"internal_node_id": "0.0-4.0-2.0"
	},
	{
		"rt": null,
		"stimulus": "<div style='font-size:5em'>+</div>",
		"key_press": null,
		"screen": "fixation_cross",
		"trial_type": "html-keyboard-response",
		"trial_index": 7,
		"time_elapsed": 81547,
		"internal_node_id": "0.0-4.0-0.1"
	},
	{
		"rt": 621.9449999625795,
		"stimulus": "stimuli/blue.png",
		"button_pressed": null,
		"key_press": 37,
		"answer": "leftarrow",
		"response_type": "Keyboard",
		"screen": "stimulus",
		"correct_key": "leftarrow",
		"correct_button": "<-",
		"trial_type": "image-buttonkeyboard-response",
		"trial_index": 8,
		"time_elapsed": 82172,
		"internal_node_id": "0.0-4.0-1.1",
		"prestimulus_duration": 522,
		"trial_number": 2,
		"correct": true
	},
	{
		"rt": null,
		"stimulus": "<p style='color:green; font-size:2em'><b>Correct!</b></p><p>RT: 621.94 ms</p>",
		"key_press": null,
		"trial_type": "html-keyboard-response",
		"trial_index": 9,
		"time_elapsed": 82673,
		"internal_node_id": "0.0-4.0-2.1"
	},
	{
		"rt": null,
		"stimulus": "<div style='font-size:5em'>+</div>",
		"key_press": null,
		"screen": "fixation_cross",
		"trial_type": "html-keyboard-response",
		"trial_index": 10,
		"time_elapsed": 83178,
		"internal_node_id": "0.0-4.0-0.2"
	},
	{
		"rt": 5979.079999960959,
		"stimulus": "stimuli/blue.png",
		"button_pressed": 1,
		"key_press": null,
		"answer": "->",
		"response_type": "Button",
		"screen": "stimulus",
		"correct_key": "leftarrow",
		"correct_button": "<-",
		"trial_type": "image-buttonkeyboard-response",
		"trial_index": 11,
		"time_elapsed": 89158,
		"internal_node_id": "0.0-4.0-1.2",
		"prestimulus_duration": 505,
		"trial_number": 3,
		"correct": false
	},
	{
		"rt": null,
		"stimulus": "<p style='color:red; font-size:2em'><b>Wrong.</b></p><p>RT: 5979.08 ms</p>",
		"key_press": null,
		"trial_type": "html-keyboard-response",
		"trial_index": 12,
		"time_elapsed": 89661,
		"internal_node_id": "0.0-4.0-2.2"
	},
	{
		"rt": null,
		"stimulus": "<div style='font-size:5em'>+</div>",
		"key_press": null,
		"screen": "fixation_cross",
		"trial_type": "html-keyboard-response",
		"trial_index": 13,
		"time_elapsed": 90249,
		"internal_node_id": "0.0-4.0-0.3"
	},
	{
		"rt": 3833.90500000678,
		"stimulus": "stimuli/orange.png",
		"button_pressed": 1,
		"key_press": null,
		"answer": "->",
		"response_type": "Button",
		"screen": "stimulus",
		"correct_key": "rightarrow",
		"correct_button": "->",
		"trial_type": "image-buttonkeyboard-response",
		"trial_index": 14,
		"time_elapsed": 94084,
		"internal_node_id": "0.0-4.0-1.3",
		"prestimulus_duration": 588,
		"trial_number": 4,
		"correct": true
	},
	{
		"rt": null,
		"stimulus": "<p style='color:green; font-size:2em'><b>Correct!</b></p><p>RT: 3833.91 ms</p>",
		"key_press": null,
		"trial_type": "html-keyboard-response",
		"trial_index": 15,
		"time_elapsed": 94586,
		"internal_node_id": "0.0-4.0-2.3"
	},
	{
		"rt": 3699.1000000271015,
		"stimulus": "<p><b>Overall, did you find this task easy?</b></p>",
		"slider_start": 50,
		"response": 57,
		"screen": "question_difficulty",
		"experiment_duration": 94901.03499998804,
		"trial_type": "html-slider-response",
		"trial_index": 16,
		"time_elapsed": 98288,
		"internal_node_id": "0.0-5.0",
		"interactions": "[\n\t{\n\t\t\"event\": \"blur\",\n\t\t\"trial\": 0,\n\t\t\"time\": 46\n\t},\n\t{\n\t\t\"event\": \"focus\",\n\t\t\"trial\": 0,\n\t\t\"time\": 94\n\t},\n\t{\n\t\t\"event\": \"blur\",\n\t\t\"trial\": 0,\n\t\t\"time\": 6281\n\t},\n\t{\n\t\t\"event\": \"focus\",\n\t\t\"trial\": 0,\n\t\t\"time\": 39276\n\t},\n\t{\n\t\t\"event\": \"blur\",\n\t\t\"trial\": 2,\n\t\t\"time\": 70206\n\t},\n\t{\n\t\t\"event\": \"focus\",\n\t\t\"trial\": 2,\n\t\t\"time\": 73223\n\t},\n\t{\n\t\t\"event\": \"blur\",\n\t\t\"trial\": 11,\n\t\t\"time\": 86692\n\t},\n\t{\n\t\t\"event\": \"focus\",\n\t\t\"trial\": 11,\n\t\t\"time\": 88296\n\t}\n]"
	}
]