[
	{
		"rt": 1216.9050000084098,
		"stimulus": "    <p><b>Welcome to the experiment! Please read the information below.</b></p>     <hr>     <p><i>Here are the terms and conditions. Blabla something something.</i><p>     <p><i>Another paragraph blabla something else.</i><p>",
		"response": 0,
		"screen": "session_info",
		"participant_id": "20210223_145921_6os5o",
		"experiment_version": "0.0.1",
		"datetime": "23/02/2021 14:59:21",
		"date": "20210223",
		"time": "145921",
		"date_timezone": 8,
		"window_width": 1536,
		"window_height": 722,
		"window_resolution": "1536x722",
		"screen_width": 1536,
		"screen_height": 864,
		"screen_resolution": "1536x864",
		"screen_colordepth": 24,
		"screen_pixeldepth": 24,
		"screen_touchscreen": false,
		"browser_name": "Netscape",
		"browser_codename": "Mozilla",
		"browser_engine": "Gecko",
		"browser_version": "5.0 (Windows NT 10.0; Win64; x64) AppleWebKit/537.36 (KHTML, like Gecko) Chrome/88.0.4324.182 Safari/537.36",
		"browser": "Mozilla/5.0 (Windows NT 10.0; Win64; x64) AppleWebKit/537.36 (KHTML, like Gecko) Chrome/88.0.4324.182 Safari/537.36",
		"system_platform": "Win32",
		"system_language": "en-US",
		"trial_type": "html-button-response",
		"trial_index": 0,
		"time_elapsed": 1241,
		"internal_node_id": "0.0-0.0"
	},
	{
		"rt": 610.0550000264775,
		"response": {
			"Age": "",
			"Initials": ""
		},
		"screen": "participant_info_general",
		"trial_type": "survey-text",
		"trial_index": 1,
		"time_elapsed": 1856,
		"internal_node_id": "0.0-1.0"
	},
	{
		"rt": 2473.2099999964703,
		"response": {
			"AlreadyPlayed": "No"
		},
		"question_order": [
			0
		],
		"screen": "participant_info_session",
		"trial_type": "survey-multi-choice",
		"trial_index": 2,
		"time_elapsed": 4330,
		"internal_node_id": "0.0-2.0"
	},
	{
		"rt": 956.4700000046287,
		"stimulus": "    <p>In this experiment, a circle will appear in the center of the screen.</p>     <p>If the circle is <strong>blue</strong>, press the letter B on the keyboard as fast as you can.</p>     <p>If the circle is <strong>orange</strong>, press the letter O as fast as you can.</p>     <div style='width: 100%;'>         <div style='float: left;'>             <img src='img/blue.png'></img>             <p class='small'><strong>Press the <- key</strong></p>         </div>         <div class='float: right;'>             <img src='img/orange.png'></img>             <p class='small'><strong>Press the -> key</strong></p>         </div>     </div>     <br><p>Are you ready?</p>",
		"response": 0,
		"trial_type": "html-button-response",
		"trial_index": 3,
		"time_elapsed": 5287,
		"internal_node_id": "0.0-3.0"
	},
	{
		"rt": null,
		"stimulus": "<div style='font-size:5em'>+</div>",
		"response": null,
		"screen": "fixation_cross",
		"trial_type": "html-keyboard-response",
		"trial_index": 4,
		"time_elapsed": 5990,
		"internal_node_id": "0.0-4.0-0.0"
	},
	{
		"rt": 1502.0650000078604,
		"stimulus": "stimuli/blue.png",
		"response": 1,
		"key_press": null,
		"answer": "->",
		"response_type": "Button",
		"screen": "stimulus",
		"correct_key": "leftarrow",
		"correct_button": "<-",
		"trial_type": "image-buttonkeyboard-response",
		"trial_index": 5,
		"time_elapsed": 7494,
		"internal_node_id": "0.0-4.0-1.0",
		"prestimulus_duration": 703,
		"trial_number": 1,
		"correct": false
	},
	{
		"rt": null,
		"stimulus": "<p style='color:red; font-size:2em'><b>Wrong.</b></p><p>RT: 1502.07 ms</p>",
		"response": null,
		"trial_type": "html-keyboard-response",
		"trial_index": 6,
		"time_elapsed": 7996,
		"internal_node_id": "0.0-4.0-2.0"
	},
	{
		"rt": null,
		"stimulus": "<div style='font-size:5em'>+</div>",
		"response": null,
		"screen": "fixation_cross",
		"trial_type": "html-keyboard-response",
		"trial_index": 7,
		"time_elapsed": 8687,
		"internal_node_id": "0.0-4.0-0.1"
	},
	{
		"rt": 1076.1350000102539,
		"stimulus": "stimuli/orange.png",
		"response": 1,
		"key_press": null,
		"answer": "->",
		"response_type": "Button",
		"screen": "stimulus",
		"correct_key": "rightarrow",
		"correct_button": "->",
		"trial_type": "image-buttonkeyboard-response",
		"trial_index": 8,
		"time_elapsed": 9764,
		"internal_node_id": "0.0-4.0-1.1",
		"prestimulus_duration": 691,
		"trial_number": 2,
		"correct": true
	},
	{
		"rt": null,
		"stimulus": "<p style='color:green; font-size:2em'><b>Correct!</b></p><p>RT: 1076.14 ms</p>",
		"response": null,
		"trial_type": "html-keyboard-response",
		"trial_index": 9,
		"time_elapsed": 10266,
		"internal_node_id": "0.0-4.0-2.1"
	},
	{
		"rt": null,
		"stimulus": "<div style='font-size:5em'>+</div>",
		"response": null,
		"screen": "fixation_cross",
		"trial_type": "html-keyboard-response",
		"trial_index": 10,
		"time_elapsed": 10877,
		"internal_node_id": "0.0-4.0-0.2"
	},
	{
		"rt": 624.4099999894388,
		"stimulus": "stimuli/orange.png",
		"response": 1,
		"key_press": null,
		"answer": "->",
		"response_type": "Button",
		"screen": "stimulus",
		"correct_key": "rightarrow",
		"correct_button": "->",
		"trial_type": "image-buttonkeyboard-response",
		"trial_index": 11,
		"time_elapsed": 11503,
		"internal_node_id": "0.0-4.0-1.2",
		"prestimulus_duration": 611,
		"trial_number": 3,
		"correct": true
	},
	{
		"rt": null,
		"stimulus": "<p style='color:green; font-size:2em'><b>Correct!</b></p><p>RT: 624.41 ms</p>",
		"response": null,
		"trial_type": "html-keyboard-response",
		"trial_index": 12,
		"time_elapsed": 12005,
		"internal_node_id": "0.0-4.0-2.2"
	},
	{
		"rt": null,
		"stimulus": "<div style='font-size:5em'>+</div>",
		"response": null,
		"screen": "fixation_cross",
		"trial_type": "html-keyboard-response",
		"trial_index": 13,
		"time_elapsed": 12360,
		"internal_node_id": "0.0-4.0-0.3"
	},
	{
		"rt": 511.89999998314306,
		"stimulus": "stimuli/blue.png",
		"response": 1,
		"key_press": null,
		"answer": "->",
		"response_type": "Button",
		"screen": "stimulus",
		"correct_key": "leftarrow",
		"correct_button": "<-",
		"trial_type": "image-buttonkeyboard-response",
		"trial_index": 14,
		"time_elapsed": 12873,
		"internal_node_id": "0.0-4.0-1.3",
		"prestimulus_duration": 355,
		"trial_number": 4,
		"correct": false
	},
	{
		"rt": null,
		"stimulus": "<p style='color:red; font-size:2em'><b>Wrong.</b></p><p>RT: 511.90 ms</p>",
		"response": null,
		"trial_type": "html-keyboard-response",
		"trial_index": 15,
		"time_elapsed": 13376,
		"internal_node_id": "0.0-4.0-2.3"
	},
	{
		"rt": 741.5949999995064,
		"stimulus": "<p><b>Overall, did you find this task easy?</b></p>",
		"slider_start": 50,
		"response": 50,
		"screen": "question_difficulty",
		"experiment_duration": 13447.885000001406,
		"trial_type": "html-slider-response",
		"trial_index": 16,
		"time_elapsed": 14121,
		"internal_node_id": "0.0-5.0",
		"interactions": "[]"
	}
]