[
	{
		"rt": 678.3099999884143,
		"stimulus": "    <p><b>Welcome to the experiment! Please read the information below.</b></p>     <hr>     <p><i>Here are the terms and conditions. Blabla something something.</i><p>     <p><i>Another paragraph blabla something else.</i><p>",
		"button_pressed": 0,
		"trial_type": "html-button-response",
		"trial_index": 0,
		"time_elapsed": 695,
		"internal_node_id": "0.0-0.0",
		"participant_id": "20211493239_jgud4euwshnpquw",
		"experiment_version": "0.0.1",
		"data_path": "data/20211493239_jgud4euwshnpquw",
		"date": "Thu Feb 18 2021 09:32:39 GMT+0800 (Singapore Standard Time)",
		"window_width": 2560,
		"window_height": 1297,
		"window_resolution": "2560x1297",
		"screen_width": 2560,
		"screen_height": 1440,
		"screen_resolution": "2560x1440",
		"screen_colordepth": 24,
		"screen_pixeldepth": 24,
		"screen_touchscreen": false,
		"browser_name": "Netscape",
		"browser_codename": "Mozilla",
		"browser_engine": "Gecko",
		"browser_version": "5.0 (Windows NT 10.0; Win64; x64) AppleWebKit/537.36 (KHTML, like Gecko) Chrome/88.0.4324.182 Safari/537.36",
		"browser": "Mozilla/5.0 (Windows NT 10.0; Win64; x64) AppleWebKit/537.36 (KHTML, like Gecko) Chrome/88.0.4324.182 Safari/537.36",
		"system_platform": "Win32",
		"system_language": "fr-FR"
	},
	{
		"rt": 744.0150000038557,
		"responses": "{\"Age\":\"\",\"Initials\":\"\"}",
		"object": "information",
		"trial_type": "survey-text",
		"trial_index": 1,
		"time_elapsed": 1448,
		"internal_node_id": "0.0-1.0",
		"participant_id": "20211493239_jgud4euwshnpquw",
		"experiment_version": "0.0.1",
		"data_path": "data/20211493239_jgud4euwshnpquw",
		"date": "Thu Feb 18 2021 09:32:39 GMT+0800 (Singapore Standard Time)",
		"window_width": 2560,
		"window_height": 1297,
		"window_resolution": "2560x1297",
		"screen_width": 2560,
		"screen_height": 1440,
		"screen_resolution": "2560x1440",
		"screen_colordepth": 24,
		"screen_pixeldepth": 24,
		"screen_touchscreen": false,
		"browser_name": "Netscape",
		"browser_codename": "Mozilla",
		"browser_engine": "Gecko",
		"browser_version": "5.0 (Windows NT 10.0; Win64; x64) AppleWebKit/537.36 (KHTML, like Gecko) Chrome/88.0.4324.182 Safari/537.36",
		"browser": "Mozilla/5.0 (Windows NT 10.0; Win64; x64) AppleWebKit/537.36 (KHTML, like Gecko) Chrome/88.0.4324.182 Safari/537.36",
		"system_platform": "Win32",
		"system_language": "fr-FR"
	},
	{
		"rt": 1605.615000007674,
		"responses": "{\"AlreadyPlayed\":\"Yes\"}",
		"question_order": "[0]",
		"object": "information",
		"trial_type": "survey-multi-choice",
		"trial_index": 2,
		"time_elapsed": 3055,
		"internal_node_id": "0.0-2.0",
		"participant_id": "20211493239_jgud4euwshnpquw",
		"experiment_version": "0.0.1",
		"data_path": "data/20211493239_jgud4euwshnpquw",
		"date": "Thu Feb 18 2021 09:32:39 GMT+0800 (Singapore Standard Time)",
		"window_width": 2560,
		"window_height": 1297,
		"window_resolution": "2560x1297",
		"screen_width": 2560,
		"screen_height": 1440,
		"screen_resolution": "2560x1440",
		"screen_colordepth": 24,
		"screen_pixeldepth": 24,
		"screen_touchscreen": false,
		"browser_name": "Netscape",
		"browser_codename": "Mozilla",
		"browser_engine": "Gecko",
		"browser_version": "5.0 (Windows NT 10.0; Win64; x64) AppleWebKit/537.36 (KHTML, like Gecko) Chrome/88.0.4324.182 Safari/537.36",
		"browser": "Mozilla/5.0 (Windows NT 10.0; Win64; x64) AppleWebKit/537.36 (KHTML, like Gecko) Chrome/88.0.4324.182 Safari/537.36",
		"system_platform": "Win32",
		"system_language": "fr-FR"
	},
	{
		"rt": 998.6500000231899,
		"stimulus": "    <p>In this experiment, a circle will appear in the center of the screen.</p>     <p>If the circle is <strong>blue</strong>, press the letter B on the keyboard as fast as you can.</p>     <p>If the circle is <strong>orange</strong>, press the letter O as fast as you can.</p>     <div style='width: 100%;'>         <div style='float: left;'>             <img src='img/blue.png'></img>             <p class='small'><strong>Press the <- key</strong></p>         </div>         <div class='float: right;'>             <img src='img/orange.png'></img>             <p class='small'><strong>Press the -> key</strong></p>         </div>     </div>     <br><p>Are you ready?</p>",
		"button_pressed": 0,
		"trial_type": "html-button-response",
		"trial_index": 3,
		"time_elapsed": 4058,
		"internal_node_id": "0.0-3.0",
		"participant_id": "20211493239_jgud4euwshnpquw",
		"experiment_version": "0.0.1",
		"data_path": "data/20211493239_jgud4euwshnpquw",
		"date": "Thu Feb 18 2021 09:32:39 GMT+0800 (Singapore Standard Time)",
		"window_width": 2560,
		"window_height": 1297,
		"window_resolution": "2560x1297",
		"screen_width": 2560,
		"screen_height": 1440,
		"screen_resolution": "2560x1440",
		"screen_colordepth": 24,
		"screen_pixeldepth": 24,
		"screen_touchscreen": false,
		"browser_name": "Netscape",
		"browser_codename": "Mozilla",
		"browser_engine": "Gecko",
		"browser_version": "5.0 (Windows NT 10.0; Win64; x64) AppleWebKit/537.36 (KHTML, like Gecko) Chrome/88.0.4324.182 Safari/537.36",
		"browser": "Mozilla/5.0 (Windows NT 10.0; Win64; x64) AppleWebKit/537.36 (KHTML, like Gecko) Chrome/88.0.4324.182 Safari/537.36",
		"system_platform": "Win32",
		"system_language": "fr-FR"
	},
	{
		"rt": null,
		"stimulus": "<div style='font-size:5em'>+</div>",
		"key_press": null,
		"object": "fixation_cross",
		"trial_type": "html-keyboard-response",
		"trial_index": 4,
		"time_elapsed": 4807,
		"internal_node_id": "0.0-4.0-0.0",
		"participant_id": "20211493239_jgud4euwshnpquw",
		"experiment_version": "0.0.1",
		"data_path": "data/20211493239_jgud4euwshnpquw",
		"date": "Thu Feb 18 2021 09:32:39 GMT+0800 (Singapore Standard Time)",
		"window_width": 2560,
		"window_height": 1297,
		"window_resolution": "2560x1297",
		"screen_width": 2560,
		"screen_height": 1440,
		"screen_resolution": "2560x1440",
		"screen_colordepth": 24,
		"screen_pixeldepth": 24,
		"screen_touchscreen": false,
		"browser_name": "Netscape",
		"browser_codename": "Mozilla",
		"browser_engine": "Gecko",
		"browser_version": "5.0 (Windows NT 10.0; Win64; x64) AppleWebKit/537.36 (KHTML, like Gecko) Chrome/88.0.4324.182 Safari/537.36",
		"browser": "Mozilla/5.0 (Windows NT 10.0; Win64; x64) AppleWebKit/537.36 (KHTML, like Gecko) Chrome/88.0.4324.182 Safari/537.36",
		"system_platform": "Win32",
		"system_language": "fr-FR"
	},
	{
		"rt": 386.56499999342486,
		"stimulus": "stimuli/orange.png",
		"button_pressed": null,
		"key_press": 39,
		"answer": "rightarrow",
		"response_type": "Keyboard",
		"object": "stimulus",
		"correct_key": "rightarrow",
		"correct_button": "->",
		"trial_type": "image-buttonkeyboard-response",
		"trial_index": 5,
		"time_elapsed": 5216,
		"internal_node_id": "0.0-4.0-1.0",
		"participant_id": "20211493239_jgud4euwshnpquw",
		"experiment_version": "0.0.1",
		"data_path": "data/20211493239_jgud4euwshnpquw",
		"date": "Thu Feb 18 2021 09:32:39 GMT+0800 (Singapore Standard Time)",
		"window_width": 2560,
		"window_height": 1297,
		"window_resolution": "2560x1297",
		"screen_width": 2560,
		"screen_height": 1440,
		"screen_resolution": "2560x1440",
		"screen_colordepth": 24,
		"screen_pixeldepth": 24,
		"screen_touchscreen": false,
		"browser_name": "Netscape",
		"browser_codename": "Mozilla",
		"browser_engine": "Gecko",
		"browser_version": "5.0 (Windows NT 10.0; Win64; x64) AppleWebKit/537.36 (KHTML, like Gecko) Chrome/88.0.4324.182 Safari/537.36",
		"browser": "Mozilla/5.0 (Windows NT 10.0; Win64; x64) AppleWebKit/537.36 (KHTML, like Gecko) Chrome/88.0.4324.182 Safari/537.36",
		"system_platform": "Win32",
		"system_language": "fr-FR",
		"prestimulus_duration": 749,
		"trial_number": 1,
		"correct": true
	},
	{
		"rt": null,
		"stimulus": "<p style='color:green; font-size:2em'><b>Correct!</b></p><p>RT: 386.56 ms</p>",
		"key_press": null,
		"trial_type": "html-keyboard-response",
		"trial_index": 6,
		"time_elapsed": 5719,
		"internal_node_id": "0.0-4.0-2.0",
		"participant_id": "20211493239_jgud4euwshnpquw",
		"experiment_version": "0.0.1",
		"data_path": "data/20211493239_jgud4euwshnpquw",
		"date": "Thu Feb 18 2021 09:32:39 GMT+0800 (Singapore Standard Time)",
		"window_width": 2560,
		"window_height": 1297,
		"window_resolution": "2560x1297",
		"screen_width": 2560,
		"screen_height": 1440,
		"screen_resolution": "2560x1440",
		"screen_colordepth": 24,
		"screen_pixeldepth": 24,
		"screen_touchscreen": false,
		"browser_name": "Netscape",
		"browser_codename": "Mozilla",
		"browser_engine": "Gecko",
		"browser_version": "5.0 (Windows NT 10.0; Win64; x64) AppleWebKit/537.36 (KHTML, like Gecko) Chrome/88.0.4324.182 Safari/537.36",
		"browser": "Mozilla/5.0 (Windows NT 10.0; Win64; x64) AppleWebKit/537.36 (KHTML, like Gecko) Chrome/88.0.4324.182 Safari/537.36",
		"system_platform": "Win32",
		"system_language": "fr-FR"
	},
	{
		"rt": null,
		"stimulus": "<div style='font-size:5em'>+</div>",
		"key_press": null,
		"object": "fixation_cross",
		"trial_type": "html-keyboard-response",
		"trial_index": 7,
		"time_elapsed": 6005,
		"internal_node_id": "0.0-4.0-0.1",
		"participant_id": "20211493239_jgud4euwshnpquw",
		"experiment_version": "0.0.1",
		"data_path": "data/20211493239_jgud4euwshnpquw",
		"date": "Thu Feb 18 2021 09:32:39 GMT+0800 (Singapore Standard Time)",
		"window_width": 2560,
		"window_height": 1297,
		"window_resolution": "2560x1297",
		"screen_width": 2560,
		"screen_height": 1440,
		"screen_resolution": "2560x1440",
		"screen_colordepth": 24,
		"screen_pixeldepth": 24,
		"screen_touchscreen": false,
		"browser_name": "Netscape",
		"browser_codename": "Mozilla",
		"browser_engine": "Gecko",
		"browser_version": "5.0 (Windows NT 10.0; Win64; x64) AppleWebKit/537.36 (KHTML, like Gecko) Chrome/88.0.4324.182 Safari/537.36",
		"browser": "Mozilla/5.0 (Windows NT 10.0; Win64; x64) AppleWebKit/537.36 (KHTML, like Gecko) Chrome/88.0.4324.182 Safari/537.36",
		"system_platform": "Win32",
		"system_language": "fr-FR"
	},
	{
		"rt": 282.6150000328198,
		"stimulus": "stimuli/blue.png",
		"button_pressed": null,
		"key_press": 37,
		"answer": "leftarrow",
		"response_type": "Keyboard",
		"object": "stimulus",
		"correct_key": "leftarrow",
		"correct_button": "<-",
		"trial_type": "image-buttonkeyboard-response",
		"trial_index": 8,
		"time_elapsed": 6290,
		"internal_node_id": "0.0-4.0-1.1",
		"participant_id": "20211493239_jgud4euwshnpquw",
		"experiment_version": "0.0.1",
		"data_path": "data/20211493239_jgud4euwshnpquw",
		"date": "Thu Feb 18 2021 09:32:39 GMT+0800 (Singapore Standard Time)",
		"window_width": 2560,
		"window_height": 1297,
		"window_resolution": "2560x1297",
		"screen_width": 2560,
		"screen_height": 1440,
		"screen_resolution": "2560x1440",
		"screen_colordepth": 24,
		"screen_pixeldepth": 24,
		"screen_touchscreen": false,
		"browser_name": "Netscape",
		"browser_codename": "Mozilla",
		"browser_engine": "Gecko",
		"browser_version": "5.0 (Windows NT 10.0; Win64; x64) AppleWebKit/537.36 (KHTML, like Gecko) Chrome/88.0.4324.182 Safari/537.36",
		"browser": "Mozilla/5.0 (Windows NT 10.0; Win64; x64) AppleWebKit/537.36 (KHTML, like Gecko) Chrome/88.0.4324.182 Safari/537.36",
		"system_platform": "Win32",
		"system_language": "fr-FR",
		"prestimulus_duration": 286,
		"trial_number": 2,
		"correct": true
	},
	{
		"rt": null,
		"stimulus": "<p style='color:green; font-size:2em'><b>Correct!</b></p><p>RT: 282.62 ms</p>",
		"key_press": null,
		"trial_type": "html-keyboard-response",
		"trial_index": 9,
		"time_elapsed": 6793,
		"internal_node_id": "0.0-4.0-2.1",
		"participant_id": "20211493239_jgud4euwshnpquw",
		"experiment_version": "0.0.1",
		"data_path": "data/20211493239_jgud4euwshnpquw",
		"date": "Thu Feb 18 2021 09:32:39 GMT+0800 (Singapore Standard Time)",
		"window_width": 2560,
		"window_height": 1297,
		"window_resolution": "2560x1297",
		"screen_width": 2560,
		"screen_height": 1440,
		"screen_resolution": "2560x1440",
		"screen_colordepth": 24,
		"screen_pixeldepth": 24,
		"screen_touchscreen": false,
		"browser_name": "Netscape",
		"browser_codename": "Mozilla",
		"browser_engine": "Gecko",
		"browser_version": "5.0 (Windows NT 10.0; Win64; x64) AppleWebKit/537.36 (KHTML, like Gecko) Chrome/88.0.4324.182 Safari/537.36",
		"browser": "Mozilla/5.0 (Windows NT 10.0; Win64; x64) AppleWebKit/537.36 (KHTML, like Gecko) Chrome/88.0.4324.182 Safari/537.36",
		"system_platform": "Win32",
		"system_language": "fr-FR"
	},
	{
		"rt": null,
		"stimulus": "<div style='font-size:5em'>+</div>",
		"key_press": null,
		"object": "fixation_cross",
		"trial_type": "html-keyboard-response",
		"trial_index": 10,
		"time_elapsed": 7293,
		"internal_node_id": "0.0-4.0-0.2",
		"participant_id": "20211493239_jgud4euwshnpquw",
		"experiment_version": "0.0.1",
		"data_path": "data/20211493239_jgud4euwshnpquw",
		"date": "Thu Feb 18 2021 09:32:39 GMT+0800 (Singapore Standard Time)",
		"window_width": 2560,
		"window_height": 1297,
		"window_resolution": "2560x1297",
		"screen_width": 2560,
		"screen_height": 1440,
		"screen_resolution": "2560x1440",
		"screen_colordepth": 24,
		"screen_pixeldepth": 24,
		"screen_touchscreen": false,
		"browser_name": "Netscape",
		"browser_codename": "Mozilla",
		"browser_engine": "Gecko",
		"browser_version": "5.0 (Windows NT 10.0; Win64; x64) AppleWebKit/537.36 (KHTML, like Gecko) Chrome/88.0.4324.182 Safari/537.36",
		"browser": "Mozilla/5.0 (Windows NT 10.0; Win64; x64) AppleWebKit/537.36 (KHTML, like Gecko) Chrome/88.0.4324.182 Safari/537.36",
		"system_platform": "Win32",
		"system_language": "fr-FR"
	},
	{
		"rt": 200.99500002106652,
		"stimulus": "stimuli/orange.png",
		"button_pressed": null,
		"key_press": 39,
		"answer": "rightarrow",
		"response_type": "Keyboard",
		"object": "stimulus",
		"correct_key": "rightarrow",
		"correct_button": "->",
		"trial_type": "image-buttonkeyboard-response",
		"trial_index": 11,
		"time_elapsed": 7496,
		"internal_node_id": "0.0-4.0-1.2",
		"participant_id": "20211493239_jgud4euwshnpquw",
		"experiment_version": "0.0.1",
		"data_path": "data/20211493239_jgud4euwshnpquw",
		"date": "Thu Feb 18 2021 09:32:39 GMT+0800 (Singapore Standard Time)",
		"window_width": 2560,
		"window_height": 1297,
		"window_resolution": "2560x1297",
		"screen_width": 2560,
		"screen_height": 1440,
		"screen_resolution": "2560x1440",
		"screen_colordepth": 24,
		"screen_pixeldepth": 24,
		"screen_touchscreen": false,
		"browser_name": "Netscape",
		"browser_codename": "Mozilla",
		"browser_engine": "Gecko",
		"browser_version": "5.0 (Windows NT 10.0; Win64; x64) AppleWebKit/537.36 (KHTML, like Gecko) Chrome/88.0.4324.182 Safari/537.36",
		"browser": "Mozilla/5.0 (Windows NT 10.0; Win64; x64) AppleWebKit/537.36 (KHTML, like Gecko) Chrome/88.0.4324.182 Safari/537.36",
		"system_platform": "Win32",
		"system_language": "fr-FR",
		"prestimulus_duration": 500,
		"trial_number": 3,
		"correct": true
	},
	{
		"rt": null,
		"stimulus": "<p style='color:green; font-size:2em'><b>Correct!</b></p><p>RT: 201.00 ms</p>",
		"key_press": null,
		"trial_type": "html-keyboard-response",
		"trial_index": 12,
		"time_elapsed": 7999,
		"internal_node_id": "0.0-4.0-2.2",
		"participant_id": "20211493239_jgud4euwshnpquw",
		"experiment_version": "0.0.1",
		"data_path": "data/20211493239_jgud4euwshnpquw",
		"date": "Thu Feb 18 2021 09:32:39 GMT+0800 (Singapore Standard Time)",
		"window_width": 2560,
		"window_height": 1297,
		"window_resolution": "2560x1297",
		"screen_width": 2560,
		"screen_height": 1440,
		"screen_resolution": "2560x1440",
		"screen_colordepth": 24,
		"screen_pixeldepth": 24,
		"screen_touchscreen": false,
		"browser_name": "Netscape",
		"browser_codename": "Mozilla",
		"browser_engine": "Gecko",
		"browser_version": "5.0 (Windows NT 10.0; Win64; x64) AppleWebKit/537.36 (KHTML, like Gecko) Chrome/88.0.4324.182 Safari/537.36",
		"browser": "Mozilla/5.0 (Windows NT 10.0; Win64; x64) AppleWebKit/537.36 (KHTML, like Gecko) Chrome/88.0.4324.182 Safari/537.36",
		"system_platform": "Win32",
		"system_language": "fr-FR"
	},
	{
		"rt": null,
		"stimulus": "<div style='font-size:5em'>+</div>",
		"key_press": null,
		"object": "fixation_cross",
		"trial_type": "html-keyboard-response",
		"trial_index": 13,
		"time_elapsed": 8448,
		"internal_node_id": "0.0-4.0-0.3",
		"participant_id": "20211493239_jgud4euwshnpquw",
		"experiment_version": "0.0.1",
		"data_path": "data/20211493239_jgud4euwshnpquw",
		"date": "Thu Feb 18 2021 09:32:39 GMT+0800 (Singapore Standard Time)",
		"window_width": 2560,
		"window_height": 1297,
		"window_resolution": "2560x1297",
		"screen_width": 2560,
		"screen_height": 1440,
		"screen_resolution": "2560x1440",
		"screen_colordepth": 24,
		"screen_pixeldepth": 24,
		"screen_touchscreen": false,
		"browser_name": "Netscape",
		"browser_codename": "Mozilla",
		"browser_engine": "Gecko",
		"browser_version": "5.0 (Windows NT 10.0; Win64; x64) AppleWebKit/537.36 (KHTML, like Gecko) Chrome/88.0.4324.182 Safari/537.36",
		"browser": "Mozilla/5.0 (Windows NT 10.0; Win64; x64) AppleWebKit/537.36 (KHTML, like Gecko) Chrome/88.0.4324.182 Safari/537.36",
		"system_platform": "Win32",
		"system_language": "fr-FR"
	},
	{
		"rt": 233.42499998398125,
		"stimulus": "stimuli/blue.png",
		"button_pressed": null,
		"key_press": 39,
		"answer": "rightarrow",
		"response_type": "Keyboard",
		"object": "stimulus",
		"correct_key": "leftarrow",
		"correct_button": "<-",
		"trial_type": "image-buttonkeyboard-response",
		"trial_index": 14,
		"time_elapsed": 8684,
		"internal_node_id": "0.0-4.0-1.3",
		"participant_id": "20211493239_jgud4euwshnpquw",
		"experiment_version": "0.0.1",
		"data_path": "data/20211493239_jgud4euwshnpquw",
		"date": "Thu Feb 18 2021 09:32:39 GMT+0800 (Singapore Standard Time)",
		"window_width": 2560,
		"window_height": 1297,
		"window_resolution": "2560x1297",
		"screen_width": 2560,
		"screen_height": 1440,
		"screen_resolution": "2560x1440",
		"screen_colordepth": 24,
		"screen_pixeldepth": 24,
		"screen_touchscreen": false,
		"browser_name": "Netscape",
		"browser_codename": "Mozilla",
		"browser_engine": "Gecko",
		"browser_version": "5.0 (Windows NT 10.0; Win64; x64) AppleWebKit/537.36 (KHTML, like Gecko) Chrome/88.0.4324.182 Safari/537.36",
		"browser": "Mozilla/5.0 (Windows NT 10.0; Win64; x64) AppleWebKit/537.36 (KHTML, like Gecko) Chrome/88.0.4324.182 Safari/537.36",
		"system_platform": "Win32",
		"system_language": "fr-FR",
		"prestimulus_duration": 449,
		"trial_number": 4,
		"correct": false
	},
	{
		"rt": null,
		"stimulus": "<p style='color:red; font-size:2em'><b>Wrong.</b></p><p>RT: 233.42 ms</p>",
		"key_press": null,
		"trial_type": "html-keyboard-response",
		"trial_index": 15,
		"time_elapsed": 9187,
		"internal_node_id": "0.0-4.0-2.3",
		"participant_id": "20211493239_jgud4euwshnpquw",
		"experiment_version": "0.0.1",
		"data_path": "data/20211493239_jgud4euwshnpquw",
		"date": "Thu Feb 18 2021 09:32:39 GMT+0800 (Singapore Standard Time)",
		"window_width": 2560,
		"window_height": 1297,
		"window_resolution": "2560x1297",
		"screen_width": 2560,
		"screen_height": 1440,
		"screen_resolution": "2560x1440",
		"screen_colordepth": 24,
		"screen_pixeldepth": 24,
		"screen_touchscreen": false,
		"browser_name": "Netscape",
		"browser_codename": "Mozilla",
		"browser_engine": "Gecko",
		"browser_version": "5.0 (Windows NT 10.0; Win64; x64) AppleWebKit/537.36 (KHTML, like Gecko) Chrome/88.0.4324.182 Safari/537.36",
		"browser": "Mozilla/5.0 (Windows NT 10.0; Win64; x64) AppleWebKit/537.36 (KHTML, like Gecko) Chrome/88.0.4324.182 Safari/537.36",
		"system_platform": "Win32",
		"system_language": "fr-FR"
	},
	{
		"rt": 1001.6649999888614,
		"stimulus": "<p><b>Overall, did you find this task easy?</b></p>",
		"slider_start": 50,
		"response": 50,
		"object": "information",
		"trial_type": "html-slider-response",
		"trial_index": 16,
		"time_elapsed": 10192,
		"internal_node_id": "0.0-5.0",
		"participant_id": "20211493239_jgud4euwshnpquw",
		"experiment_version": "0.0.1",
		"data_path": "data/20211493239_jgud4euwshnpquw",
		"date": "Thu Feb 18 2021 09:32:39 GMT+0800 (Singapore Standard Time)",
		"window_width": 2560,
		"window_height": 1297,
		"window_resolution": "2560x1297",
		"screen_width": 2560,
		"screen_height": 1440,
		"screen_resolution": "2560x1440",
		"screen_colordepth": 24,
		"screen_pixeldepth": 24,
		"screen_touchscreen": false,
		"browser_name": "Netscape",
		"browser_codename": "Mozilla",
		"browser_engine": "Gecko",
		"browser_version": "5.0 (Windows NT 10.0; Win64; x64) AppleWebKit/537.36 (KHTML, like Gecko) Chrome/88.0.4324.182 Safari/537.36",
		"browser": "Mozilla/5.0 (Windows NT 10.0; Win64; x64) AppleWebKit/537.36 (KHTML, like Gecko) Chrome/88.0.4324.182 Safari/537.36",
		"system_platform": "Win32",
		"system_language": "fr-FR"
	},
	{
		"rt": 1736.3900000345893,
		"stimulus": "<p><b>Thank you for participating!</b> Here are your results:</p><hr><p style='color:rgb(76,175,80);'>You responded correctly on <b>75.00%</b> of the trials.</p><p style='color:rgb(233,30,99);'>Your average response time was <b>290.06</b> ms.</p><hr><p> Don't hesitate to spread the word and share this experiment, science appreciates :)</p>",
		"button_pressed": 0,
		"object": "fixation_cross",
		"experiment_duration": 10509.689999977127,
		"trial_type": "html-button-response",
		"trial_index": 17,
		"time_elapsed": 11930,
		"internal_node_id": "0.0-6.0",
		"participant_id": "20211493239_jgud4euwshnpquw",
		"experiment_version": "0.0.1",
		"data_path": "data/20211493239_jgud4euwshnpquw",
		"date": "Thu Feb 18 2021 09:32:39 GMT+0800 (Singapore Standard Time)",
		"window_width": 2560,
		"window_height": 1297,
		"window_resolution": "2560x1297",
		"screen_width": 2560,
		"screen_height": 1440,
		"screen_resolution": "2560x1440",
		"screen_colordepth": 24,
		"screen_pixeldepth": 24,
		"screen_touchscreen": false,
		"browser_name": "Netscape",
		"browser_codename": "Mozilla",
		"browser_engine": "Gecko",
		"browser_version": "5.0 (Windows NT 10.0; Win64; x64) AppleWebKit/537.36 (KHTML, like Gecko) Chrome/88.0.4324.182 Safari/537.36",
		"browser": "Mozilla/5.0 (Windows NT 10.0; Win64; x64) AppleWebKit/537.36 (KHTML, like Gecko) Chrome/88.0.4324.182 Safari/537.36",
		"system_platform": "Win32",
		"system_language": "fr-FR"
	}
]