[
	{
		"rt": 753.7649999721907,
		"stimulus": "    <p><b>Welcome to the experiment! Please read the information below.</b></p>     <hr>     <p><i>Here are the terms and conditions. Blabla something something.</i><p>     <p><i>Another paragraph blabla something else.</i><p>",
		"button_pressed": 0,
		"trial_type": "html-button-response",
		"trial_index": 0,
		"time_elapsed": 771,
		"internal_node_id": "0.0-0.0",
		"participant_id": "bqb1uw13nwdydog",
		"experiment_version": "0.0.1",
		"data_path": "data/20211492741_bqb1uw13nwdydog",
		"date": "Thu Feb 18 2021 09:27:41 GMT+0800 (Singapore Standard Time)",
		"window_width": 2560,
		"window_height": 1297,
		"window_resolution": "2560x1297",
		"screen_width": 2560,
		"screen_height": 1440,
		"screen_resolution": "2560x1440",
		"screen_colordepth": 24,
		"screen_pixeldepth": 24,
		"screen_touchscreen": false,
		"browser_name": "Netscape",
		"browser_codename": "Mozilla",
		"browser_engine": "Gecko",
		"browser_version": "5.0 (Windows NT 10.0; Win64; x64) AppleWebKit/537.36 (KHTML, like Gecko) Chrome/88.0.4324.182 Safari/537.36",
		"browser": "Mozilla/5.0 (Windows NT 10.0; Win64; x64) AppleWebKit/537.36 (KHTML, like Gecko) Chrome/88.0.4324.182 Safari/537.36",
		"system_platform": "Win32",
		"system_language": "fr-FR"
	},
	{
		"rt": 1305.419999989681,
		"responses": "{\"Age\":\"ae\",\"Initials\":\"\"}",
		"object": "information",
		"trial_type": "survey-text",
		"trial_index": 1,
		"time_elapsed": 2082,
		"internal_node_id": "0.0-1.0",
		"participant_id": "bqb1uw13nwdydog",
		"experiment_version": "0.0.1",
		"data_path": "data/20211492741_bqb1uw13nwdydog",
		"date": "Thu Feb 18 2021 09:27:41 GMT+0800 (Singapore Standard Time)",
		"window_width": 2560,
		"window_height": 1297,
		"window_resolution": "2560x1297",
		"screen_width": 2560,
		"screen_height": 1440,
		"screen_resolution": "2560x1440",
		"screen_colordepth": 24,
		"screen_pixeldepth": 24,
		"screen_touchscreen": false,
		"browser_name": "Netscape",
		"browser_codename": "Mozilla",
		"browser_engine": "Gecko",
		"browser_version": "5.0 (Windows NT 10.0; Win64; x64) AppleWebKit/537.36 (KHTML, like Gecko) Chrome/88.0.4324.182 Safari/537.36",
		"browser": "Mozilla/5.0 (Windows NT 10.0; Win64; x64) AppleWebKit/537.36 (KHTML, like Gecko) Chrome/88.0.4324.182 Safari/537.36",
		"system_platform": "Win32",
		"system_language": "fr-FR"
	},
	{
		"rt": 1201.0400000144728,
		"responses": "{\"AlreadyPlayed\":\"Yes\"}",
		"question_order": "[0]",
		"object": "information",
		"trial_type": "survey-multi-choice",
		"trial_index": 2,
		"time_elapsed": 3284,
		"internal_node_id": "0.0-2.0",
		"participant_id": "bqb1uw13nwdydog",
		"experiment_version": "0.0.1",
		"data_path": "data/20211492741_bqb1uw13nwdydog",
		"date": "Thu Feb 18 2021 09:27:41 GMT+0800 (Singapore Standard Time)",
		"window_width": 2560,
		"window_height": 1297,
		"window_resolution": "2560x1297",
		"screen_width": 2560,
		"screen_height": 1440,
		"screen_resolution": "2560x1440",
		"screen_colordepth": 24,
		"screen_pixeldepth": 24,
		"screen_touchscreen": false,
		"browser_name": "Netscape",
		"browser_codename": "Mozilla",
		"browser_engine": "Gecko",
		"browser_version": "5.0 (Windows NT 10.0; Win64; x64) AppleWebKit/537.36 (KHTML, like Gecko) Chrome/88.0.4324.182 Safari/537.36",
		"browser": "Mozilla/5.0 (Windows NT 10.0; Win64; x64) AppleWebKit/537.36 (KHTML, like Gecko) Chrome/88.0.4324.182 Safari/537.36",
		"system_platform": "Win32",
		"system_language": "fr-FR"
	},
	{
		"rt": 861.0999999800697,
		"stimulus": "    <p>In this experiment, a circle will appear in the center of the screen.</p>     <p>If the circle is <strong>blue</strong>, press the letter B on the keyboard as fast as you can.</p>     <p>If the circle is <strong>orange</strong>, press the letter O as fast as you can.</p>     <div style='width: 100%;'>         <div style='float: left;'>             <img src='img/blue.png'></img>             <p class='small'><strong>Press the <- key</strong></p>         </div>         <div class='float: right;'>             <img src='img/orange.png'></img>             <p class='small'><strong>Press the -> key</strong></p>         </div>     </div>     <br><p>Are you ready?</p>",
		"button_pressed": 0,
		"trial_type": "html-button-response",
		"trial_index": 3,
		"time_elapsed": 4148,
		"internal_node_id": "0.0-3.0",
		"participant_id": "bqb1uw13nwdydog",
		"experiment_version": "0.0.1",
		"data_path": "data/20211492741_bqb1uw13nwdydog",
		"date": "Thu Feb 18 2021 09:27:41 GMT+0800 (Singapore Standard Time)",
		"window_width": 2560,
		"window_height": 1297,
		"window_resolution": "2560x1297",
		"screen_width": 2560,
		"screen_height": 1440,
		"screen_resolution": "2560x1440",
		"screen_colordepth": 24,
		"screen_pixeldepth": 24,
		"screen_touchscreen": false,
		"browser_name": "Netscape",
		"browser_codename": "Mozilla",
		"browser_engine": "Gecko",
		"browser_version": "5.0 (Windows NT 10.0; Win64; x64) AppleWebKit/537.36 (KHTML, like Gecko) Chrome/88.0.4324.182 Safari/537.36",
		"browser": "Mozilla/5.0 (Windows NT 10.0; Win64; x64) AppleWebKit/537.36 (KHTML, like Gecko) Chrome/88.0.4324.182 Safari/537.36",
		"system_platform": "Win32",
		"system_language": "fr-FR"
	},
	{
		"rt": null,
		"stimulus": "<div style='font-size:5em'>+</div>",
		"key_press": null,
		"object": "fixation_cross",
		"trial_type": "html-keyboard-response",
		"trial_index": 4,
		"time_elapsed": 4835,
		"internal_node_id": "0.0-4.0-0.0",
		"participant_id": "bqb1uw13nwdydog",
		"experiment_version": "0.0.1",
		"data_path": "data/20211492741_bqb1uw13nwdydog",
		"date": "Thu Feb 18 2021 09:27:41 GMT+0800 (Singapore Standard Time)",
		"window_width": 2560,
		"window_height": 1297,
		"window_resolution": "2560x1297",
		"screen_width": 2560,
		"screen_height": 1440,
		"screen_resolution": "2560x1440",
		"screen_colordepth": 24,
		"screen_pixeldepth": 24,
		"screen_touchscreen": false,
		"browser_name": "Netscape",
		"browser_codename": "Mozilla",
		"browser_engine": "Gecko",
		"browser_version": "5.0 (Windows NT 10.0; Win64; x64) AppleWebKit/537.36 (KHTML, like Gecko) Chrome/88.0.4324.182 Safari/537.36",
		"browser": "Mozilla/5.0 (Windows NT 10.0; Win64; x64) AppleWebKit/537.36 (KHTML, like Gecko) Chrome/88.0.4324.182 Safari/537.36",
		"system_platform": "Win32",
		"system_language": "fr-FR"
	},
	{
		"rt": 245.28999999165535,
		"stimulus": "stimuli/orange.png",
		"button_pressed": null,
		"key_press": 39,
		"answer": "rightarrow",
		"response_type": "Keyboard",
		"object": "stimulus",
		"correct_key": "rightarrow",
		"correct_button": "->",
		"trial_type": "image-buttonkeyboard-response",
		"trial_index": 5,
		"time_elapsed": 5097,
		"internal_node_id": "0.0-4.0-1.0",
		"participant_id": "bqb1uw13nwdydog",
		"experiment_version": "0.0.1",
		"data_path": "data/20211492741_bqb1uw13nwdydog",
		"date": "Thu Feb 18 2021 09:27:41 GMT+0800 (Singapore Standard Time)",
		"window_width": 2560,
		"window_height": 1297,
		"window_resolution": "2560x1297",
		"screen_width": 2560,
		"screen_height": 1440,
		"screen_resolution": "2560x1440",
		"screen_colordepth": 24,
		"screen_pixeldepth": 24,
		"screen_touchscreen": false,
		"browser_name": "Netscape",
		"browser_codename": "Mozilla",
		"browser_engine": "Gecko",
		"browser_version": "5.0 (Windows NT 10.0; Win64; x64) AppleWebKit/537.36 (KHTML, like Gecko) Chrome/88.0.4324.182 Safari/537.36",
		"browser": "Mozilla/5.0 (Windows NT 10.0; Win64; x64) AppleWebKit/537.36 (KHTML, like Gecko) Chrome/88.0.4324.182 Safari/537.36",
		"system_platform": "Win32",
		"system_language": "fr-FR",
		"prestimulus_duration": 687,
		"trial_number": 1,
		"correct": true
	},
	{
		"rt": null,
		"stimulus": "<p style='color:green; font-size:2em'><b>Correct!</b></p><p>RT: 245.29 ms</p>",
		"key_press": null,
		"trial_type": "html-keyboard-response",
		"trial_index": 6,
		"time_elapsed": 5600,
		"internal_node_id": "0.0-4.0-2.0",
		"participant_id": "bqb1uw13nwdydog",
		"experiment_version": "0.0.1",
		"data_path": "data/20211492741_bqb1uw13nwdydog",
		"date": "Thu Feb 18 2021 09:27:41 GMT+0800 (Singapore Standard Time)",
		"window_width": 2560,
		"window_height": 1297,
		"window_resolution": "2560x1297",
		"screen_width": 2560,
		"screen_height": 1440,
		"screen_resolution": "2560x1440",
		"screen_colordepth": 24,
		"screen_pixeldepth": 24,
		"screen_touchscreen": false,
		"browser_name": "Netscape",
		"browser_codename": "Mozilla",
		"browser_engine": "Gecko",
		"browser_version": "5.0 (Windows NT 10.0; Win64; x64) AppleWebKit/537.36 (KHTML, like Gecko) Chrome/88.0.4324.182 Safari/537.36",
		"browser": "Mozilla/5.0 (Windows NT 10.0; Win64; x64) AppleWebKit/537.36 (KHTML, like Gecko) Chrome/88.0.4324.182 Safari/537.36",
		"system_platform": "Win32",
		"system_language": "fr-FR"
	},
	{
		"rt": null,
		"stimulus": "<div style='font-size:5em'>+</div>",
		"key_press": null,
		"object": "fixation_cross",
		"trial_type": "html-keyboard-response",
		"trial_index": 7,
		"time_elapsed": 6182,
		"internal_node_id": "0.0-4.0-0.1",
		"participant_id": "bqb1uw13nwdydog",
		"experiment_version": "0.0.1",
		"data_path": "data/20211492741_bqb1uw13nwdydog",
		"date": "Thu Feb 18 2021 09:27:41 GMT+0800 (Singapore Standard Time)",
		"window_width": 2560,
		"window_height": 1297,
		"window_resolution": "2560x1297",
		"screen_width": 2560,
		"screen_height": 1440,
		"screen_resolution": "2560x1440",
		"screen_colordepth": 24,
		"screen_pixeldepth": 24,
		"screen_touchscreen": false,
		"browser_name": "Netscape",
		"browser_codename": "Mozilla",
		"browser_engine": "Gecko",
		"browser_version": "5.0 (Windows NT 10.0; Win64; x64) AppleWebKit/537.36 (KHTML, like Gecko) Chrome/88.0.4324.182 Safari/537.36",
		"browser": "Mozilla/5.0 (Windows NT 10.0; Win64; x64) AppleWebKit/537.36 (KHTML, like Gecko) Chrome/88.0.4324.182 Safari/537.36",
		"system_platform": "Win32",
		"system_language": "fr-FR"
	},
	{
		"rt": 233.49499999312684,
		"stimulus": "stimuli/blue.png",
		"button_pressed": null,
		"key_press": 39,
		"answer": "rightarrow",
		"response_type": "Keyboard",
		"object": "stimulus",
		"correct_key": "leftarrow",
		"correct_button": "<-",
		"trial_type": "image-buttonkeyboard-response",
		"trial_index": 8,
		"time_elapsed": 6418,
		"internal_node_id": "0.0-4.0-1.1",
		"participant_id": "bqb1uw13nwdydog",
		"experiment_version": "0.0.1",
		"data_path": "data/20211492741_bqb1uw13nwdydog",
		"date": "Thu Feb 18 2021 09:27:41 GMT+0800 (Singapore Standard Time)",
		"window_width": 2560,
		"window_height": 1297,
		"window_resolution": "2560x1297",
		"screen_width": 2560,
		"screen_height": 1440,
		"screen_resolution": "2560x1440",
		"screen_colordepth": 24,
		"screen_pixeldepth": 24,
		"screen_touchscreen": false,
		"browser_name": "Netscape",
		"browser_codename": "Mozilla",
		"browser_engine": "Gecko",
		"browser_version": "5.0 (Windows NT 10.0; Win64; x64) AppleWebKit/537.36 (KHTML, like Gecko) Chrome/88.0.4324.182 Safari/537.36",
		"browser": "Mozilla/5.0 (Windows NT 10.0; Win64; x64) AppleWebKit/537.36 (KHTML, like Gecko) Chrome/88.0.4324.182 Safari/537.36",
		"system_platform": "Win32",
		"system_language": "fr-FR",
		"prestimulus_duration": 582,
		"trial_number": 2,
		"correct": false
	},
	{
		"rt": null,
		"stimulus": "<p style='color:red; font-size:2em'><b>Wrong.</b></p><p>RT: 233.49 ms</p>",
		"key_press": null,
		"trial_type": "html-keyboard-response",
		"trial_index": 9,
		"time_elapsed": 6922,
		"internal_node_id": "0.0-4.0-2.1",
		"participant_id": "bqb1uw13nwdydog",
		"experiment_version": "0.0.1",
		"data_path": "data/20211492741_bqb1uw13nwdydog",
		"date": "Thu Feb 18 2021 09:27:41 GMT+0800 (Singapore Standard Time)",
		"window_width": 2560,
		"window_height": 1297,
		"window_resolution": "2560x1297",
		"screen_width": 2560,
		"screen_height": 1440,
		"screen_resolution": "2560x1440",
		"screen_colordepth": 24,
		"screen_pixeldepth": 24,
		"screen_touchscreen": false,
		"browser_name": "Netscape",
		"browser_codename": "Mozilla",
		"browser_engine": "Gecko",
		"browser_version": "5.0 (Windows NT 10.0; Win64; x64) AppleWebKit/537.36 (KHTML, like Gecko) Chrome/88.0.4324.182 Safari/537.36",
		"browser": "Mozilla/5.0 (Windows NT 10.0; Win64; x64) AppleWebKit/537.36 (KHTML, like Gecko) Chrome/88.0.4324.182 Safari/537.36",
		"system_platform": "Win32",
		"system_language": "fr-FR"
	},
	{
		"rt": null,
		"stimulus": "<div style='font-size:5em'>+</div>",
		"key_press": null,
		"object": "fixation_cross",
		"trial_type": "html-keyboard-response",
		"trial_index": 10,
		"time_elapsed": 7235,
		"internal_node_id": "0.0-4.0-0.2",
		"participant_id": "bqb1uw13nwdydog",
		"experiment_version": "0.0.1",
		"data_path": "data/20211492741_bqb1uw13nwdydog",
		"date": "Thu Feb 18 2021 09:27:41 GMT+0800 (Singapore Standard Time)",
		"window_width": 2560,
		"window_height": 1297,
		"window_resolution": "2560x1297",
		"screen_width": 2560,
		"screen_height": 1440,
		"screen_resolution": "2560x1440",
		"screen_colordepth": 24,
		"screen_pixeldepth": 24,
		"screen_touchscreen": false,
		"browser_name": "Netscape",
		"browser_codename": "Mozilla",
		"browser_engine": "Gecko",
		"browser_version": "5.0 (Windows NT 10.0; Win64; x64) AppleWebKit/537.36 (KHTML, like Gecko) Chrome/88.0.4324.182 Safari/537.36",
		"browser": "Mozilla/5.0 (Windows NT 10.0; Win64; x64) AppleWebKit/537.36 (KHTML, like Gecko) Chrome/88.0.4324.182 Safari/537.36",
		"system_platform": "Win32",
		"system_language": "fr-FR"
	},
	{
		"rt": 454.66500002657995,
		"stimulus": "stimuli/blue.png",
		"button_pressed": null,
		"key_press": 39,
		"answer": "rightarrow",
		"response_type": "Keyboard",
		"object": "stimulus",
		"correct_key": "leftarrow",
		"correct_button": "<-",
		"trial_type": "image-buttonkeyboard-response",
		"trial_index": 11,
		"time_elapsed": 7692,
		"internal_node_id": "0.0-4.0-1.2",
		"participant_id": "bqb1uw13nwdydog",
		"experiment_version": "0.0.1",
		"data_path": "data/20211492741_bqb1uw13nwdydog",
		"date": "Thu Feb 18 2021 09:27:41 GMT+0800 (Singapore Standard Time)",
		"window_width": 2560,
		"window_height": 1297,
		"window_resolution": "2560x1297",
		"screen_width": 2560,
		"screen_height": 1440,
		"screen_resolution": "2560x1440",
		"screen_colordepth": 24,
		"screen_pixeldepth": 24,
		"screen_touchscreen": false,
		"browser_name": "Netscape",
		"browser_codename": "Mozilla",
		"browser_engine": "Gecko",
		"browser_version": "5.0 (Windows NT 10.0; Win64; x64) AppleWebKit/537.36 (KHTML, like Gecko) Chrome/88.0.4324.182 Safari/537.36",
		"browser": "Mozilla/5.0 (Windows NT 10.0; Win64; x64) AppleWebKit/537.36 (KHTML, like Gecko) Chrome/88.0.4324.182 Safari/537.36",
		"system_platform": "Win32",
		"system_language": "fr-FR",
		"prestimulus_duration": 313,
		"trial_number": 3,
		"correct": false
	},
	{
		"rt": null,
		"stimulus": "<p style='color:red; font-size:2em'><b>Wrong.</b></p><p>RT: 454.67 ms</p>",
		"key_press": null,
		"trial_type": "html-keyboard-response",
		"trial_index": 12,
		"time_elapsed": 8195,
		"internal_node_id": "0.0-4.0-2.2",
		"participant_id": "bqb1uw13nwdydog",
		"experiment_version": "0.0.1",
		"data_path": "data/20211492741_bqb1uw13nwdydog",
		"date": "Thu Feb 18 2021 09:27:41 GMT+0800 (Singapore Standard Time)",
		"window_width": 2560,
		"window_height": 1297,
		"window_resolution": "2560x1297",
		"screen_width": 2560,
		"screen_height": 1440,
		"screen_resolution": "2560x1440",
		"screen_colordepth": 24,
		"screen_pixeldepth": 24,
		"screen_touchscreen": false,
		"browser_name": "Netscape",
		"browser_codename": "Mozilla",
		"browser_engine": "Gecko",
		"browser_version": "5.0 (Windows NT 10.0; Win64; x64) AppleWebKit/537.36 (KHTML, like Gecko) Chrome/88.0.4324.182 Safari/537.36",
		"browser": "Mozilla/5.0 (Windows NT 10.0; Win64; x64) AppleWebKit/537.36 (KHTML, like Gecko) Chrome/88.0.4324.182 Safari/537.36",
		"system_platform": "Win32",
		"system_language": "fr-FR"
	},
	{
		"rt": null,
		"stimulus": "<div style='font-size:5em'>+</div>",
		"key_press": null,
		"object": "fixation_cross",
		"trial_type": "html-keyboard-response",
		"trial_index": 13,
		"time_elapsed": 8859,
		"internal_node_id": "0.0-4.0-0.3",
		"participant_id": "bqb1uw13nwdydog",
		"experiment_version": "0.0.1",
		"data_path": "data/20211492741_bqb1uw13nwdydog",
		"date": "Thu Feb 18 2021 09:27:41 GMT+0800 (Singapore Standard Time)",
		"window_width": 2560,
		"window_height": 1297,
		"window_resolution": "2560x1297",
		"screen_width": 2560,
		"screen_height": 1440,
		"screen_resolution": "2560x1440",
		"screen_colordepth": 24,
		"screen_pixeldepth": 24,
		"screen_touchscreen": false,
		"browser_name": "Netscape",
		"browser_codename": "Mozilla",
		"browser_engine": "Gecko",
		"browser_version": "5.0 (Windows NT 10.0; Win64; x64) AppleWebKit/537.36 (KHTML, like Gecko) Chrome/88.0.4324.182 Safari/537.36",
		"browser": "Mozilla/5.0 (Windows NT 10.0; Win64; x64) AppleWebKit/537.36 (KHTML, like Gecko) Chrome/88.0.4324.182 Safari/537.36",
		"system_platform": "Win32",
		"system_language": "fr-FR"
	},
	{
		"rt": 412.8999999957159,
		"stimulus": "stimuli/orange.png",
		"button_pressed": null,
		"key_press": 39,
		"answer": "rightarrow",
		"response_type": "Keyboard",
		"object": "stimulus",
		"correct_key": "rightarrow",
		"correct_button": "->",
		"trial_type": "image-buttonkeyboard-response",
		"trial_index": 14,
		"time_elapsed": 9273,
		"internal_node_id": "0.0-4.0-1.3",
		"participant_id": "bqb1uw13nwdydog",
		"experiment_version": "0.0.1",
		"data_path": "data/20211492741_bqb1uw13nwdydog",
		"date": "Thu Feb 18 2021 09:27:41 GMT+0800 (Singapore Standard Time)",
		"window_width": 2560,
		"window_height": 1297,
		"window_resolution": "2560x1297",
		"screen_width": 2560,
		"screen_height": 1440,
		"screen_resolution": "2560x1440",
		"screen_colordepth": 24,
		"screen_pixeldepth": 24,
		"screen_touchscreen": false,
		"browser_name": "Netscape",
		"browser_codename": "Mozilla",
		"browser_engine": "Gecko",
		"browser_version": "5.0 (Windows NT 10.0; Win64; x64) AppleWebKit/537.36 (KHTML, like Gecko) Chrome/88.0.4324.182 Safari/537.36",
		"browser": "Mozilla/5.0 (Windows NT 10.0; Win64; x64) AppleWebKit/537.36 (KHTML, like Gecko) Chrome/88.0.4324.182 Safari/537.36",
		"system_platform": "Win32",
		"system_language": "fr-FR",
		"prestimulus_duration": 664,
		"trial_number": 4,
		"correct": true
	},
	{
		"rt": null,
		"stimulus": "<p style='color:green; font-size:2em'><b>Correct!</b></p><p>RT: 412.90 ms</p>",
		"key_press": null,
		"trial_type": "html-keyboard-response",
		"trial_index": 15,
		"time_elapsed": 9776,
		"internal_node_id": "0.0-4.0-2.3",
		"participant_id": "bqb1uw13nwdydog",
		"experiment_version": "0.0.1",
		"data_path": "data/20211492741_bqb1uw13nwdydog",
		"date": "Thu Feb 18 2021 09:27:41 GMT+0800 (Singapore Standard Time)",
		"window_width": 2560,
		"window_height": 1297,
		"window_resolution": "2560x1297",
		"screen_width": 2560,
		"screen_height": 1440,
		"screen_resolution": "2560x1440",
		"screen_colordepth": 24,
		"screen_pixeldepth": 24,
		"screen_touchscreen": false,
		"browser_name": "Netscape",
		"browser_codename": "Mozilla",
		"browser_engine": "Gecko",
		"browser_version": "5.0 (Windows NT 10.0; Win64; x64) AppleWebKit/537.36 (KHTML, like Gecko) Chrome/88.0.4324.182 Safari/537.36",
		"browser": "Mozilla/5.0 (Windows NT 10.0; Win64; x64) AppleWebKit/537.36 (KHTML, like Gecko) Chrome/88.0.4324.182 Safari/537.36",
		"system_platform": "Win32",
		"system_language": "fr-FR"
	},
	{
		"rt": 1922.3050000146031,
		"stimulus": "<p><b>Overall, did you find this task easy?</b></p>",
		"slider_start": 50,
		"response": 62,
		"object": "information",
		"trial_type": "html-slider-response",
		"trial_index": 16,
		"time_elapsed": 11701,
		"internal_node_id": "0.0-5.0",
		"participant_id": "bqb1uw13nwdydog",
		"experiment_version": "0.0.1",
		"data_path": "data/20211492741_bqb1uw13nwdydog",
		"date": "Thu Feb 18 2021 09:27:41 GMT+0800 (Singapore Standard Time)",
		"window_width": 2560,
		"window_height": 1297,
		"window_resolution": "2560x1297",
		"screen_width": 2560,
		"screen_height": 1440,
		"screen_resolution": "2560x1440",
		"screen_colordepth": 24,
		"screen_pixeldepth": 24,
		"screen_touchscreen": false,
		"browser_name": "Netscape",
		"browser_codename": "Mozilla",
		"browser_engine": "Gecko",
		"browser_version": "5.0 (Windows NT 10.0; Win64; x64) AppleWebKit/537.36 (KHTML, like Gecko) Chrome/88.0.4324.182 Safari/537.36",
		"browser": "Mozilla/5.0 (Windows NT 10.0; Win64; x64) AppleWebKit/537.36 (KHTML, like Gecko) Chrome/88.0.4324.182 Safari/537.36",
		"system_platform": "Win32",
		"system_language": "fr-FR"
	},
	{
		"rt": 1063.8049999834038,
		"stimulus": "<p><b>Thank you for participating!</b> Here are your results:</p><hr><p style='color:rgb(76,175,80);'>You responded correctly on <b>50.00%</b> of the trials.</p><p style='color:rgb(233,30,99);'>Your average response time was <b>329.09</b> ms.</p><hr><p> Don't hesitate to spread the word and share this experiment, science appreciates :)</p>",
		"button_pressed": 0,
		"object": "fixation_cross",
		"experiment_duration": 12011.574999953154,
		"trial_type": "html-button-response",
		"trial_index": 17,
		"time_elapsed": 12765,
		"internal_node_id": "0.0-6.0",
		"participant_id": "bqb1uw13nwdydog",
		"experiment_version": "0.0.1",
		"data_path": "data/20211492741_bqb1uw13nwdydog",
		"date": "Thu Feb 18 2021 09:27:41 GMT+0800 (Singapore Standard Time)",
		"window_width": 2560,
		"window_height": 1297,
		"window_resolution": "2560x1297",
		"screen_width": 2560,
		"screen_height": 1440,
		"screen_resolution": "2560x1440",
		"screen_colordepth": 24,
		"screen_pixeldepth": 24,
		"screen_touchscreen": false,
		"browser_name": "Netscape",
		"browser_codename": "Mozilla",
		"browser_engine": "Gecko",
		"browser_version": "5.0 (Windows NT 10.0; Win64; x64) AppleWebKit/537.36 (KHTML, like Gecko) Chrome/88.0.4324.182 Safari/537.36",
		"browser": "Mozilla/5.0 (Windows NT 10.0; Win64; x64) AppleWebKit/537.36 (KHTML, like Gecko) Chrome/88.0.4324.182 Safari/537.36",
		"system_platform": "Win32",
		"system_language": "fr-FR"
	}
]