[
	{
		"rt": 1109.654999920167,
		"stimulus": "    <p>Welcome to the experiment!</p>     <p>Press any key to begin.</p>",
		"key_press": 70,
		"trial_type": "html-keyboard-response",
		"trial_index": 0,
		"time_elapsed": 1127,
		"internal_node_id": "0.0-0.0",
		"participant_id": "2oabd2r0egdsjm3"
	},
	{
		"rt": 412.5399999320507,
		"stimulus": "    <p>In this experiment, a circle will appear in the center of the screen.</p>     <p>If the circle is <strong>blue</strong>, press the letter B on the keyboard as fast as you can.</p>     <p>If the circle is <strong>orange</strong>, press the letter O as fast as you can.</p>     <div style='width: 100%;'>         <div style='float: left;'>             <img src='img/blue.png'></img>             <p class='small'><strong>Press the B key</strong></p>         </div>         <div class='float: right;'>             <img src='img/orange.png'></img>             <p class='small'><strong>Press the O key</strong></p>         </div>     </div>     <p><br>Press any key to begin.</p>",
		"key_press": 70,
		"trial_type": "html-keyboard-response",
		"trial_index": 1,
		"time_elapsed": 1542,
		"internal_node_id": "0.0-1.0",
		"participant_id": "2oabd2r0egdsjm3"
	},
	{
		"rt": null,
		"stimulus": "<div style=\"font-size:5em;\">+</div>",
		"key_press": null,
		"object": "fixation_cross",
		"trial_type": "html-keyboard-response",
		"trial_index": 2,
		"time_elapsed": 1910,
		"internal_node_id": "0.0-2.0-0.0",
		"participant_id": "2oabd2r0egdsjm3"
	},
	{
		"rt": 603.2050000503659,
		"stimulus": "stimuli/blue.png",
		"key_press": 66,
		"object": "stimulus",
		"correct_response": "b",
		"trial_type": "image-keyboard-response",
		"trial_index": 3,
		"time_elapsed": 2533,
		"internal_node_id": "0.0-2.0-1.0",
		"participant_id": "2oabd2r0egdsjm3",
		"answer": "b",
		"correct": true
	},
	{
		"rt": null,
		"stimulus": "<p>Correct!</p>                 <p>RT: 603.21 ms</p>",
		"key_press": null,
		"trial_type": "html-keyboard-response",
		"trial_index": 4,
		"time_elapsed": 3036,
		"internal_node_id": "0.0-2.0-2.0",
		"participant_id": "2oabd2r0egdsjm3"
	},
	{
		"rt": null,
		"stimulus": "<div style=\"font-size:5em;\">+</div>",
		"key_press": null,
		"object": "fixation_cross",
		"trial_type": "html-keyboard-response",
		"trial_index": 5,
		"time_elapsed": 3440,
		"internal_node_id": "0.0-2.0-0.1",
		"participant_id": "2oabd2r0egdsjm3"
	},
	{
		"rt": 409.19999999459833,
		"stimulus": "stimuli/orange.png",
		"key_press": 66,
		"object": "stimulus",
		"correct_response": "o",
		"trial_type": "image-keyboard-response",
		"trial_index": 6,
		"time_elapsed": 3852,
		"internal_node_id": "0.0-2.0-1.1",
		"participant_id": "2oabd2r0egdsjm3",
		"answer": "b",
		"correct": false
	},
	{
		"rt": null,
		"stimulus": "<p>Wrong :(</p>                 <p>RT: 409.2 ms</p>",
		"key_press": null,
		"trial_type": "html-keyboard-response",
		"trial_index": 7,
		"time_elapsed": 4355,
		"internal_node_id": "0.0-2.0-2.1",
		"participant_id": "2oabd2r0egdsjm3"
	},
	{
		"rt": null,
		"stimulus": "<div style=\"font-size:5em;\">+</div>",
		"key_press": null,
		"object": "fixation_cross",
		"trial_type": "html-keyboard-response",
		"trial_index": 8,
		"time_elapsed": 4858,
		"internal_node_id": "0.0-2.0-0.2",
		"participant_id": "2oabd2r0egdsjm3"
	},
	{
		"rt": 612.6350000267848,
		"stimulus": "stimuli/blue.png",
		"key_press": 66,
		"object": "stimulus",
		"correct_response": "b",
		"trial_type": "image-keyboard-response",
		"trial_index": 9,
		"time_elapsed": 5472,
		"internal_node_id": "0.0-2.0-1.2",
		"participant_id": "2oabd2r0egdsjm3",
		"answer": "b",
		"correct": true
	},
	{
		"rt": null,
		"stimulus": "<p>Correct!</p>                 <p>RT: 612.64 ms</p>",
		"key_press": null,
		"trial_type": "html-keyboard-response",
		"trial_index": 10,
		"time_elapsed": 5974,
		"internal_node_id": "0.0-2.0-2.2",
		"participant_id": "2oabd2r0egdsjm3"
	},
	{
		"rt": null,
		"stimulus": "<div style=\"font-size:5em;\">+</div>",
		"key_press": null,
		"object": "fixation_cross",
		"trial_type": "html-keyboard-response",
		"trial_index": 11,
		"time_elapsed": 6407,
		"internal_node_id": "0.0-2.0-0.3",
		"participant_id": "2oabd2r0egdsjm3"
	},
	{
		"rt": 269.3849999923259,
		"stimulus": "stimuli/orange.png",
		"key_press": 79,
		"object": "stimulus",
		"correct_response": "o",
		"trial_type": "image-keyboard-response",
		"trial_index": 12,
		"time_elapsed": 6679,
		"internal_node_id": "0.0-2.0-1.3",
		"participant_id": "2oabd2r0egdsjm3",
		"answer": "o",
		"correct": true
	},
	{
		"rt": null,
		"stimulus": "<p>Correct!</p>                 <p>RT: 269.38 ms</p>",
		"key_press": null,
		"trial_type": "html-keyboard-response",
		"trial_index": 13,
		"time_elapsed": 7180,
		"internal_node_id": "0.0-2.0-2.3",
		"participant_id": "2oabd2r0egdsjm3"
	},
	{
		"rt": 734.6350000007078,
		"stimulus": "<p>You responded correctly on 75% of the trials.</p><p>Your average response time was 495 ms. You're slow AF.</p><p>Press any key to continue.</p>",
		"key_press": 71,
		"trial_type": "html-keyboard-response",
		"trial_index": 14,
		"time_elapsed": 7918,
		"internal_node_id": "0.0-3.0",
		"participant_id": "2oabd2r0egdsjm3"
	},
	{
		"rt": 318.99499997962266,
		"stimulus": "    <p>It's the end! Thank you for participating.</p>     <p>Don't hesitate to spread the word and share this experiment, science appreciates :)</p>     <p>Press any key to end.</p>",
		"key_press": 71,
		"trial_type": "html-keyboard-response",
		"trial_index": 15,
		"time_elapsed": 8238,
		"internal_node_id": "0.0-4.0",
		"participant_id": "2oabd2r0egdsjm3"
	}
]