[
	{
		"rt": 17264.214999973774,
		"stimulus": "    <p><b>Welcome to the experiment! Please read the information below.</b></p>     <hr>     <p><i>Here are the terms and conditions. Blabla something something.</i><p>     <p><i>Another paragraph blabla something else.</i><p>",
		"button_pressed": 0,
		"trial_type": "html-button-response",
		"trial_index": 0,
		"time_elapsed": 17279,
		"internal_node_id": "0.0-0.0",
		"participant_id": "1phttep8j5km251",
		"experiment_version": "0.0.1",
		"data_path": "data/202113162225_1phttep8j5km251",
		"date": "Wed Feb 17 2021 16:22:25 GMT+0800 (Singapore Standard Time)",
		"window_width": 1536,
		"window_height": 722,
		"window_resolution": "1536x722",
		"screen_width": 1536,
		"screen_height": 864,
		"screen_resolution": "1536x864",
		"screen_colordepth": 24,
		"screen_pixeldepth": 24,
		"screen_touchscreen": false,
		"browser_name": "Netscape",
		"browser_codename": "Mozilla",
		"browser_engine": "Gecko",
		"browser_version": "5.0 (Windows NT 10.0; Win64; x64) AppleWebKit/537.36 (KHTML, like Gecko) Chrome/88.0.4324.150 Safari/537.36",
		"browser": "Mozilla/5.0 (Windows NT 10.0; Win64; x64) AppleWebKit/537.36 (KHTML, like Gecko) Chrome/88.0.4324.150 Safari/537.36",
		"system_platform": "Win32",
		"system_language": "fr-FR"
	},
	{
		"rt": 2058.7049999739975,
		"responses": "{\"Age\":\"\",\"Initials\":\"\"}",
		"object": "information",
		"trial_type": "survey-text",
		"trial_index": 1,
		"time_elapsed": 19342,
		"internal_node_id": "0.0-1.0",
		"participant_id": "1phttep8j5km251",
		"experiment_version": "0.0.1",
		"data_path": "data/202113162225_1phttep8j5km251",
		"date": "Wed Feb 17 2021 16:22:25 GMT+0800 (Singapore Standard Time)",
		"window_width": 1536,
		"window_height": 722,
		"window_resolution": "1536x722",
		"screen_width": 1536,
		"screen_height": 864,
		"screen_resolution": "1536x864",
		"screen_colordepth": 24,
		"screen_pixeldepth": 24,
		"screen_touchscreen": false,
		"browser_name": "Netscape",
		"browser_codename": "Mozilla",
		"browser_engine": "Gecko",
		"browser_version": "5.0 (Windows NT 10.0; Win64; x64) AppleWebKit/537.36 (KHTML, like Gecko) Chrome/88.0.4324.150 Safari/537.36",
		"browser": "Mozilla/5.0 (Windows NT 10.0; Win64; x64) AppleWebKit/537.36 (KHTML, like Gecko) Chrome/88.0.4324.150 Safari/537.36",
		"system_platform": "Win32",
		"system_language": "fr-FR"
	},
	{
		"rt": 2150.66000004299,
		"responses": "{\"AlreadyPlayed\":\"No\"}",
		"question_order": "[0]",
		"object": "information",
		"trial_type": "survey-multi-choice",
		"trial_index": 2,
		"time_elapsed": 21494,
		"internal_node_id": "0.0-2.0",
		"participant_id": "1phttep8j5km251",
		"experiment_version": "0.0.1",
		"data_path": "data/202113162225_1phttep8j5km251",
		"date": "Wed Feb 17 2021 16:22:25 GMT+0800 (Singapore Standard Time)",
		"window_width": 1536,
		"window_height": 722,
		"window_resolution": "1536x722",
		"screen_width": 1536,
		"screen_height": 864,
		"screen_resolution": "1536x864",
		"screen_colordepth": 24,
		"screen_pixeldepth": 24,
		"screen_touchscreen": false,
		"browser_name": "Netscape",
		"browser_codename": "Mozilla",
		"browser_engine": "Gecko",
		"browser_version": "5.0 (Windows NT 10.0; Win64; x64) AppleWebKit/537.36 (KHTML, like Gecko) Chrome/88.0.4324.150 Safari/537.36",
		"browser": "Mozilla/5.0 (Windows NT 10.0; Win64; x64) AppleWebKit/537.36 (KHTML, like Gecko) Chrome/88.0.4324.150 Safari/537.36",
		"system_platform": "Win32",
		"system_language": "fr-FR"
	},
	{
		"rt": 2617.130000027828,
		"stimulus": "    <p>In this experiment, a circle will appear in the center of the screen.</p>     <p>If the circle is <strong>blue</strong>, press the letter B on the keyboard as fast as you can.</p>     <p>If the circle is <strong>orange</strong>, press the letter O as fast as you can.</p>     <div style='width: 100%;'>         <div style='float: left;'>             <img src='img/blue.png'></img>             <p class='small'><strong>Press the <- key</strong></p>         </div>         <div class='float: right;'>             <img src='img/orange.png'></img>             <p class='small'><strong>Press the -> key</strong></p>         </div>     </div>     <br><p>Are you ready?</p>",
		"button_pressed": 0,
		"trial_type": "html-button-response",
		"trial_index": 3,
		"time_elapsed": 24114,
		"internal_node_id": "0.0-3.0",
		"participant_id": "1phttep8j5km251",
		"experiment_version": "0.0.1",
		"data_path": "data/202113162225_1phttep8j5km251",
		"date": "Wed Feb 17 2021 16:22:25 GMT+0800 (Singapore Standard Time)",
		"window_width": 1536,
		"window_height": 722,
		"window_resolution": "1536x722",
		"screen_width": 1536,
		"screen_height": 864,
		"screen_resolution": "1536x864",
		"screen_colordepth": 24,
		"screen_pixeldepth": 24,
		"screen_touchscreen": false,
		"browser_name": "Netscape",
		"browser_codename": "Mozilla",
		"browser_engine": "Gecko",
		"browser_version": "5.0 (Windows NT 10.0; Win64; x64) AppleWebKit/537.36 (KHTML, like Gecko) Chrome/88.0.4324.150 Safari/537.36",
		"browser": "Mozilla/5.0 (Windows NT 10.0; Win64; x64) AppleWebKit/537.36 (KHTML, like Gecko) Chrome/88.0.4324.150 Safari/537.36",
		"system_platform": "Win32",
		"system_language": "fr-FR"
	},
	{
		"rt": null,
		"stimulus": "<div style='font-size:5em'>+</div>",
		"key_press": null,
		"object": "fixation_cross",
		"trial_type": "html-keyboard-response",
		"trial_index": 4,
		"time_elapsed": 24406,
		"internal_node_id": "0.0-4.0-0.0",
		"participant_id": "1phttep8j5km251",
		"experiment_version": "0.0.1",
		"data_path": "data/202113162225_1phttep8j5km251",
		"date": "Wed Feb 17 2021 16:22:25 GMT+0800 (Singapore Standard Time)",
		"window_width": 1536,
		"window_height": 722,
		"window_resolution": "1536x722",
		"screen_width": 1536,
		"screen_height": 864,
		"screen_resolution": "1536x864",
		"screen_colordepth": 24,
		"screen_pixeldepth": 24,
		"screen_touchscreen": false,
		"browser_name": "Netscape",
		"browser_codename": "Mozilla",
		"browser_engine": "Gecko",
		"browser_version": "5.0 (Windows NT 10.0; Win64; x64) AppleWebKit/537.36 (KHTML, like Gecko) Chrome/88.0.4324.150 Safari/537.36",
		"browser": "Mozilla/5.0 (Windows NT 10.0; Win64; x64) AppleWebKit/537.36 (KHTML, like Gecko) Chrome/88.0.4324.150 Safari/537.36",
		"system_platform": "Win32",
		"system_language": "fr-FR"
	},
	{
		"rt": 893.9799999352545,
		"stimulus": "stimuli/orange.png",
		"button_pressed": null,
		"key_press": 37,
		"answer": "leftarrow",
		"response_type": "Keyboard",
		"object": "stimulus",
		"correct_key": "rightarrow",
		"correct_button": "->",
		"trial_type": "image-buttonkeyboard-response",
		"trial_index": 5,
		"time_elapsed": 25309,
		"internal_node_id": "0.0-4.0-1.0",
		"participant_id": "1phttep8j5km251",
		"experiment_version": "0.0.1",
		"data_path": "data/202113162225_1phttep8j5km251",
		"date": "Wed Feb 17 2021 16:22:25 GMT+0800 (Singapore Standard Time)",
		"window_width": 1536,
		"window_height": 722,
		"window_resolution": "1536x722",
		"screen_width": 1536,
		"screen_height": 864,
		"screen_resolution": "1536x864",
		"screen_colordepth": 24,
		"screen_pixeldepth": 24,
		"screen_touchscreen": false,
		"browser_name": "Netscape",
		"browser_codename": "Mozilla",
		"browser_engine": "Gecko",
		"browser_version": "5.0 (Windows NT 10.0; Win64; x64) AppleWebKit/537.36 (KHTML, like Gecko) Chrome/88.0.4324.150 Safari/537.36",
		"browser": "Mozilla/5.0 (Windows NT 10.0; Win64; x64) AppleWebKit/537.36 (KHTML, like Gecko) Chrome/88.0.4324.150 Safari/537.36",
		"system_platform": "Win32",
		"system_language": "fr-FR",
		"prestimulus_duration": 292,
		"trial_number": 1,
		"correct": false
	},
	{
		"rt": null,
		"stimulus": "<p style='color:red; font-size:2em'><b>Wrong.</b></p><p>RT: 893.98 ms</p>",
		"key_press": null,
		"trial_type": "html-keyboard-response",
		"trial_index": 6,
		"time_elapsed": 25824,
		"internal_node_id": "0.0-4.0-2.0",
		"participant_id": "1phttep8j5km251",
		"experiment_version": "0.0.1",
		"data_path": "data/202113162225_1phttep8j5km251",
		"date": "Wed Feb 17 2021 16:22:25 GMT+0800 (Singapore Standard Time)",
		"window_width": 1536,
		"window_height": 722,
		"window_resolution": "1536x722",
		"screen_width": 1536,
		"screen_height": 864,
		"screen_resolution": "1536x864",
		"screen_colordepth": 24,
		"screen_pixeldepth": 24,
		"screen_touchscreen": false,
		"browser_name": "Netscape",
		"browser_codename": "Mozilla",
		"browser_engine": "Gecko",
		"browser_version": "5.0 (Windows NT 10.0; Win64; x64) AppleWebKit/537.36 (KHTML, like Gecko) Chrome/88.0.4324.150 Safari/537.36",
		"browser": "Mozilla/5.0 (Windows NT 10.0; Win64; x64) AppleWebKit/537.36 (KHTML, like Gecko) Chrome/88.0.4324.150 Safari/537.36",
		"system_platform": "Win32",
		"system_language": "fr-FR"
	},
	{
		"rt": null,
		"stimulus": "<div style='font-size:5em'>+</div>",
		"key_press": null,
		"object": "fixation_cross",
		"trial_type": "html-keyboard-response",
		"trial_index": 7,
		"time_elapsed": 26501,
		"internal_node_id": "0.0-4.0-0.1",
		"participant_id": "1phttep8j5km251",
		"experiment_version": "0.0.1",
		"data_path": "data/202113162225_1phttep8j5km251",
		"date": "Wed Feb 17 2021 16:22:25 GMT+0800 (Singapore Standard Time)",
		"window_width": 1536,
		"window_height": 722,
		"window_resolution": "1536x722",
		"screen_width": 1536,
		"screen_height": 864,
		"screen_resolution": "1536x864",
		"screen_colordepth": 24,
		"screen_pixeldepth": 24,
		"screen_touchscreen": false,
		"browser_name": "Netscape",
		"browser_codename": "Mozilla",
		"browser_engine": "Gecko",
		"browser_version": "5.0 (Windows NT 10.0; Win64; x64) AppleWebKit/537.36 (KHTML, like Gecko) Chrome/88.0.4324.150 Safari/537.36",
		"browser": "Mozilla/5.0 (Windows NT 10.0; Win64; x64) AppleWebKit/537.36 (KHTML, like Gecko) Chrome/88.0.4324.150 Safari/537.36",
		"system_platform": "Win32",
		"system_language": "fr-FR"
	},
	{
		"rt": 399.7450000606477,
		"stimulus": "stimuli/blue.png",
		"button_pressed": null,
		"key_press": 37,
		"answer": "leftarrow",
		"response_type": "Keyboard",
		"object": "stimulus",
		"correct_key": "leftarrow",
		"correct_button": "<-",
		"trial_type": "image-buttonkeyboard-response",
		"trial_index": 8,
		"time_elapsed": 26903,
		"internal_node_id": "0.0-4.0-1.1",
		"participant_id": "1phttep8j5km251",
		"experiment_version": "0.0.1",
		"data_path": "data/202113162225_1phttep8j5km251",
		"date": "Wed Feb 17 2021 16:22:25 GMT+0800 (Singapore Standard Time)",
		"window_width": 1536,
		"window_height": 722,
		"window_resolution": "1536x722",
		"screen_width": 1536,
		"screen_height": 864,
		"screen_resolution": "1536x864",
		"screen_colordepth": 24,
		"screen_pixeldepth": 24,
		"screen_touchscreen": false,
		"browser_name": "Netscape",
		"browser_codename": "Mozilla",
		"browser_engine": "Gecko",
		"browser_version": "5.0 (Windows NT 10.0; Win64; x64) AppleWebKit/537.36 (KHTML, like Gecko) Chrome/88.0.4324.150 Safari/537.36",
		"browser": "Mozilla/5.0 (Windows NT 10.0; Win64; x64) AppleWebKit/537.36 (KHTML, like Gecko) Chrome/88.0.4324.150 Safari/537.36",
		"system_platform": "Win32",
		"system_language": "fr-FR",
		"prestimulus_duration": 677,
		"trial_number": 2,
		"correct": true
	},
	{
		"rt": null,
		"stimulus": "<p style='color:green; font-size:2em'><b>Correct!</b></p><p>RT: 399.75 ms</p>",
		"key_press": null,
		"trial_type": "html-keyboard-response",
		"trial_index": 9,
		"time_elapsed": 27406,
		"internal_node_id": "0.0-4.0-2.1",
		"participant_id": "1phttep8j5km251",
		"experiment_version": "0.0.1",
		"data_path": "data/202113162225_1phttep8j5km251",
		"date": "Wed Feb 17 2021 16:22:25 GMT+0800 (Singapore Standard Time)",
		"window_width": 1536,
		"window_height": 722,
		"window_resolution": "1536x722",
		"screen_width": 1536,
		"screen_height": 864,
		"screen_resolution": "1536x864",
		"screen_colordepth": 24,
		"screen_pixeldepth": 24,
		"screen_touchscreen": false,
		"browser_name": "Netscape",
		"browser_codename": "Mozilla",
		"browser_engine": "Gecko",
		"browser_version": "5.0 (Windows NT 10.0; Win64; x64) AppleWebKit/537.36 (KHTML, like Gecko) Chrome/88.0.4324.150 Safari/537.36",
		"browser": "Mozilla/5.0 (Windows NT 10.0; Win64; x64) AppleWebKit/537.36 (KHTML, like Gecko) Chrome/88.0.4324.150 Safari/537.36",
		"system_platform": "Win32",
		"system_language": "fr-FR"
	},
	{
		"rt": null,
		"stimulus": "<div style='font-size:5em'>+</div>",
		"key_press": null,
		"object": "fixation_cross",
		"trial_type": "html-keyboard-response",
		"trial_index": 10,
		"time_elapsed": 27676,
		"internal_node_id": "0.0-4.0-0.2",
		"participant_id": "1phttep8j5km251",
		"experiment_version": "0.0.1",
		"data_path": "data/202113162225_1phttep8j5km251",
		"date": "Wed Feb 17 2021 16:22:25 GMT+0800 (Singapore Standard Time)",
		"window_width": 1536,
		"window_height": 722,
		"window_resolution": "1536x722",
		"screen_width": 1536,
		"screen_height": 864,
		"screen_resolution": "1536x864",
		"screen_colordepth": 24,
		"screen_pixeldepth": 24,
		"screen_touchscreen": false,
		"browser_name": "Netscape",
		"browser_codename": "Mozilla",
		"browser_engine": "Gecko",
		"browser_version": "5.0 (Windows NT 10.0; Win64; x64) AppleWebKit/537.36 (KHTML, like Gecko) Chrome/88.0.4324.150 Safari/537.36",
		"browser": "Mozilla/5.0 (Windows NT 10.0; Win64; x64) AppleWebKit/537.36 (KHTML, like Gecko) Chrome/88.0.4324.150 Safari/537.36",
		"system_platform": "Win32",
		"system_language": "fr-FR"
	},
	{
		"rt": 432.4750000378117,
		"stimulus": "stimuli/orange.png",
		"button_pressed": null,
		"key_press": 37,
		"answer": "leftarrow",
		"response_type": "Keyboard",
		"object": "stimulus",
		"correct_key": "rightarrow",
		"correct_button": "->",
		"trial_type": "image-buttonkeyboard-response",
		"trial_index": 11,
		"time_elapsed": 28109,
		"internal_node_id": "0.0-4.0-1.2",
		"participant_id": "1phttep8j5km251",
		"experiment_version": "0.0.1",
		"data_path": "data/202113162225_1phttep8j5km251",
		"date": "Wed Feb 17 2021 16:22:25 GMT+0800 (Singapore Standard Time)",
		"window_width": 1536,
		"window_height": 722,
		"window_resolution": "1536x722",
		"screen_width": 1536,
		"screen_height": 864,
		"screen_resolution": "1536x864",
		"screen_colordepth": 24,
		"screen_pixeldepth": 24,
		"screen_touchscreen": false,
		"browser_name": "Netscape",
		"browser_codename": "Mozilla",
		"browser_engine": "Gecko",
		"browser_version": "5.0 (Windows NT 10.0; Win64; x64) AppleWebKit/537.36 (KHTML, like Gecko) Chrome/88.0.4324.150 Safari/537.36",
		"browser": "Mozilla/5.0 (Windows NT 10.0; Win64; x64) AppleWebKit/537.36 (KHTML, like Gecko) Chrome/88.0.4324.150 Safari/537.36",
		"system_platform": "Win32",
		"system_language": "fr-FR",
		"prestimulus_duration": 270,
		"trial_number": 3,
		"correct": false
	},
	{
		"rt": null,
		"stimulus": "<p style='color:red; font-size:2em'><b>Wrong.</b></p><p>RT: 432.48 ms</p>",
		"key_press": null,
		"trial_type": "html-keyboard-response",
		"trial_index": 12,
		"time_elapsed": 28622,
		"internal_node_id": "0.0-4.0-2.2",
		"participant_id": "1phttep8j5km251",
		"experiment_version": "0.0.1",
		"data_path": "data/202113162225_1phttep8j5km251",
		"date": "Wed Feb 17 2021 16:22:25 GMT+0800 (Singapore Standard Time)",
		"window_width": 1536,
		"window_height": 722,
		"window_resolution": "1536x722",
		"screen_width": 1536,
		"screen_height": 864,
		"screen_resolution": "1536x864",
		"screen_colordepth": 24,
		"screen_pixeldepth": 24,
		"screen_touchscreen": false,
		"browser_name": "Netscape",
		"browser_codename": "Mozilla",
		"browser_engine": "Gecko",
		"browser_version": "5.0 (Windows NT 10.0; Win64; x64) AppleWebKit/537.36 (KHTML, like Gecko) Chrome/88.0.4324.150 Safari/537.36",
		"browser": "Mozilla/5.0 (Windows NT 10.0; Win64; x64) AppleWebKit/537.36 (KHTML, like Gecko) Chrome/88.0.4324.150 Safari/537.36",
		"system_platform": "Win32",
		"system_language": "fr-FR"
	},
	{
		"rt": null,
		"stimulus": "<div style='font-size:5em'>+</div>",
		"key_press": null,
		"object": "fixation_cross",
		"trial_type": "html-keyboard-response",
		"trial_index": 13,
		"time_elapsed": 29153,
		"internal_node_id": "0.0-4.0-0.3",
		"participant_id": "1phttep8j5km251",
		"experiment_version": "0.0.1",
		"data_path": "data/202113162225_1phttep8j5km251",
		"date": "Wed Feb 17 2021 16:22:25 GMT+0800 (Singapore Standard Time)",
		"window_width": 1536,
		"window_height": 722,
		"window_resolution": "1536x722",
		"screen_width": 1536,
		"screen_height": 864,
		"screen_resolution": "1536x864",
		"screen_colordepth": 24,
		"screen_pixeldepth": 24,
		"screen_touchscreen": false,
		"browser_name": "Netscape",
		"browser_codename": "Mozilla",
		"browser_engine": "Gecko",
		"browser_version": "5.0 (Windows NT 10.0; Win64; x64) AppleWebKit/537.36 (KHTML, like Gecko) Chrome/88.0.4324.150 Safari/537.36",
		"browser": "Mozilla/5.0 (Windows NT 10.0; Win64; x64) AppleWebKit/537.36 (KHTML, like Gecko) Chrome/88.0.4324.150 Safari/537.36",
		"system_platform": "Win32",
		"system_language": "fr-FR"
	},
	{
		"rt": 315.4900000663474,
		"stimulus": "stimuli/blue.png",
		"button_pressed": null,
		"key_press": 39,
		"answer": "rightarrow",
		"response_type": "Keyboard",
		"object": "stimulus",
		"correct_key": "leftarrow",
		"correct_button": "<-",
		"trial_type": "image-buttonkeyboard-response",
		"trial_index": 14,
		"time_elapsed": 29469,
		"internal_node_id": "0.0-4.0-1.3",
		"participant_id": "1phttep8j5km251",
		"experiment_version": "0.0.1",
		"data_path": "data/202113162225_1phttep8j5km251",
		"date": "Wed Feb 17 2021 16:22:25 GMT+0800 (Singapore Standard Time)",
		"window_width": 1536,
		"window_height": 722,
		"window_resolution": "1536x722",
		"screen_width": 1536,
		"screen_height": 864,
		"screen_resolution": "1536x864",
		"screen_colordepth": 24,
		"screen_pixeldepth": 24,
		"screen_touchscreen": false,
		"browser_name": "Netscape",
		"browser_codename": "Mozilla",
		"browser_engine": "Gecko",
		"browser_version": "5.0 (Windows NT 10.0; Win64; x64) AppleWebKit/537.36 (KHTML, like Gecko) Chrome/88.0.4324.150 Safari/537.36",
		"browser": "Mozilla/5.0 (Windows NT 10.0; Win64; x64) AppleWebKit/537.36 (KHTML, like Gecko) Chrome/88.0.4324.150 Safari/537.36",
		"system_platform": "Win32",
		"system_language": "fr-FR",
		"prestimulus_duration": 531,
		"trial_number": 4,
		"correct": false
	},
	{
		"rt": null,
		"stimulus": "<p style='color:red; font-size:2em'><b>Wrong.</b></p><p>RT: 315.49 ms</p>",
		"key_press": null,
		"trial_type": "html-keyboard-response",
		"trial_index": 15,
		"time_elapsed": 29977,
		"internal_node_id": "0.0-4.0-2.3",
		"participant_id": "1phttep8j5km251",
		"experiment_version": "0.0.1",
		"data_path": "data/202113162225_1phttep8j5km251",
		"date": "Wed Feb 17 2021 16:22:25 GMT+0800 (Singapore Standard Time)",
		"window_width": 1536,
		"window_height": 722,
		"window_resolution": "1536x722",
		"screen_width": 1536,
		"screen_height": 864,
		"screen_resolution": "1536x864",
		"screen_colordepth": 24,
		"screen_pixeldepth": 24,
		"screen_touchscreen": false,
		"browser_name": "Netscape",
		"browser_codename": "Mozilla",
		"browser_engine": "Gecko",
		"browser_version": "5.0 (Windows NT 10.0; Win64; x64) AppleWebKit/537.36 (KHTML, like Gecko) Chrome/88.0.4324.150 Safari/537.36",
		"browser": "Mozilla/5.0 (Windows NT 10.0; Win64; x64) AppleWebKit/537.36 (KHTML, like Gecko) Chrome/88.0.4324.150 Safari/537.36",
		"system_platform": "Win32",
		"system_language": "fr-FR"
	},
	{
		"rt": 5231.370000052266,
		"stimulus": "<p><b>Overall, did you find this task easy?</b></p>",
		"slider_start": 50,
		"response": 50,
		"object": "information",
		"trial_type": "html-slider-response",
		"trial_index": 16,
		"time_elapsed": 35209,
		"internal_node_id": "0.0-5.0",
		"participant_id": "1phttep8j5km251",
		"experiment_version": "0.0.1",
		"data_path": "data/202113162225_1phttep8j5km251",
		"date": "Wed Feb 17 2021 16:22:25 GMT+0800 (Singapore Standard Time)",
		"window_width": 1536,
		"window_height": 722,
		"window_resolution": "1536x722",
		"screen_width": 1536,
		"screen_height": 864,
		"screen_resolution": "1536x864",
		"screen_colordepth": 24,
		"screen_pixeldepth": 24,
		"screen_touchscreen": false,
		"browser_name": "Netscape",
		"browser_codename": "Mozilla",
		"browser_engine": "Gecko",
		"browser_version": "5.0 (Windows NT 10.0; Win64; x64) AppleWebKit/537.36 (KHTML, like Gecko) Chrome/88.0.4324.150 Safari/537.36",
		"browser": "Mozilla/5.0 (Windows NT 10.0; Win64; x64) AppleWebKit/537.36 (KHTML, like Gecko) Chrome/88.0.4324.150 Safari/537.36",
		"system_platform": "Win32",
		"system_language": "fr-FR"
	},
	{
		"rt": 5392.315000062808,
		"stimulus": "<p><b>Thank you for participating!</b> Here are your results:</p><hr><p style='color:rgb(76,175,80);'>You responded correctly on <b>25.00%</b> of the trials.</p><p style='color:rgb(233,30,99);'>Your average response time was <b>399.75</b> ms.</p><hr><p> Don't hesitate to spread the word and share this experiment, science appreciates :)</p>",
		"button_pressed": 0,
		"object": "fixation_cross",
		"experiment_duration": 35529.05999997165,
		"trial_type": "html-button-response",
		"trial_index": 17,
		"time_elapsed": 40603,
		"internal_node_id": "0.0-6.0",
		"participant_id": "1phttep8j5km251",
		"experiment_version": "0.0.1",
		"data_path": "data/202113162225_1phttep8j5km251",
		"date": "Wed Feb 17 2021 16:22:25 GMT+0800 (Singapore Standard Time)",
		"window_width": 1536,
		"window_height": 722,
		"window_resolution": "1536x722",
		"screen_width": 1536,
		"screen_height": 864,
		"screen_resolution": "1536x864",
		"screen_colordepth": 24,
		"screen_pixeldepth": 24,
		"screen_touchscreen": false,
		"browser_name": "Netscape",
		"browser_codename": "Mozilla",
		"browser_engine": "Gecko",
		"browser_version": "5.0 (Windows NT 10.0; Win64; x64) AppleWebKit/537.36 (KHTML, like Gecko) Chrome/88.0.4324.150 Safari/537.36",
		"browser": "Mozilla/5.0 (Windows NT 10.0; Win64; x64) AppleWebKit/537.36 (KHTML, like Gecko) Chrome/88.0.4324.150 Safari/537.36",
		"system_platform": "Win32",
		"system_language": "fr-FR"
	}
]