[
	{
		"rt": 2225.1300000061747,
		"stimulus": "    <p><b>Welcome to the experiment! Please read the information below.</b></p>     <hr>     <p><i>Here are the terms and conditions. Blabla something something.</i><p>     <p><i>Another paragraph blabla something else.</i><p>",
		"button_pressed": 0,
		"trial_type": "html-button-response",
		"trial_index": 0,
		"time_elapsed": 2230,
		"internal_node_id": "0.0-0.0",
		"participant_id": "d4q346hsdpfjwrw",
		"experiment_version": "0.0.1",
		"data_path": "data/202113111948_d4q346hsdpfjwrw",
		"date": "Wed Feb 17 2021 11:19:48 GMT+0800 (Singapore Standard Time)",
		"window_width": 803,
		"window_height": 766,
		"window_resolution": "803x766",
		"screen_width": 1440,
		"screen_height": 900,
		"screen_resolution": "1440x900",
		"screen_colordepth": 30,
		"screen_pixeldepth": 30,
		"screen_touchscreen": false,
		"browser_name": "Netscape",
		"browser_codename": "Mozilla",
		"browser_engine": "Gecko",
		"browser_version": "5.0 (Macintosh; Intel Mac OS X 10_15_7) AppleWebKit/537.36 (KHTML, like Gecko) Chrome/88.0.4324.150 Safari/537.36",
		"browser": "Mozilla/5.0 (Macintosh; Intel Mac OS X 10_15_7) AppleWebKit/537.36 (KHTML, like Gecko) Chrome/88.0.4324.150 Safari/537.36",
		"system_platform": "MacIntel",
		"system_language": "en-GB"
	},
	{
		"rt": 6618.920000008075,
		"responses": "{\"Age\":\"jhg\",\"Initials\":\"jkh\"}",
		"object": "information",
		"trial_type": "survey-text",
		"trial_index": 1,
		"time_elapsed": 8860,
		"internal_node_id": "0.0-1.0",
		"participant_id": "d4q346hsdpfjwrw",
		"experiment_version": "0.0.1",
		"data_path": "data/202113111948_d4q346hsdpfjwrw",
		"date": "Wed Feb 17 2021 11:19:48 GMT+0800 (Singapore Standard Time)",
		"window_width": 803,
		"window_height": 766,
		"window_resolution": "803x766",
		"screen_width": 1440,
		"screen_height": 900,
		"screen_resolution": "1440x900",
		"screen_colordepth": 30,
		"screen_pixeldepth": 30,
		"screen_touchscreen": false,
		"browser_name": "Netscape",
		"browser_codename": "Mozilla",
		"browser_engine": "Gecko",
		"browser_version": "5.0 (Macintosh; Intel Mac OS X 10_15_7) AppleWebKit/537.36 (KHTML, like Gecko) Chrome/88.0.4324.150 Safari/537.36",
		"browser": "Mozilla/5.0 (Macintosh; Intel Mac OS X 10_15_7) AppleWebKit/537.36 (KHTML, like Gecko) Chrome/88.0.4324.150 Safari/537.36",
		"system_platform": "MacIntel",
		"system_language": "en-GB"
	},
	{
		"rt": 2932.0499999739695,
		"responses": "{\"AlreadyPlayed\":\"No\"}",
		"question_order": "[0]",
		"object": "information",
		"trial_type": "survey-multi-choice",
		"trial_index": 2,
		"time_elapsed": 11794,
		"internal_node_id": "0.0-2.0",
		"participant_id": "d4q346hsdpfjwrw",
		"experiment_version": "0.0.1",
		"data_path": "data/202113111948_d4q346hsdpfjwrw",
		"date": "Wed Feb 17 2021 11:19:48 GMT+0800 (Singapore Standard Time)",
		"window_width": 803,
		"window_height": 766,
		"window_resolution": "803x766",
		"screen_width": 1440,
		"screen_height": 900,
		"screen_resolution": "1440x900",
		"screen_colordepth": 30,
		"screen_pixeldepth": 30,
		"screen_touchscreen": false,
		"browser_name": "Netscape",
		"browser_codename": "Mozilla",
		"browser_engine": "Gecko",
		"browser_version": "5.0 (Macintosh; Intel Mac OS X 10_15_7) AppleWebKit/537.36 (KHTML, like Gecko) Chrome/88.0.4324.150 Safari/537.36",
		"browser": "Mozilla/5.0 (Macintosh; Intel Mac OS X 10_15_7) AppleWebKit/537.36 (KHTML, like Gecko) Chrome/88.0.4324.150 Safari/537.36",
		"system_platform": "MacIntel",
		"system_language": "en-GB"
	},
	{
		"rt": 3332.590000005439,
		"stimulus": "    <p>In this experiment, a circle will appear in the center of the screen.</p>     <p>If the circle is <strong>blue</strong>, press the letter B on the keyboard as fast as you can.</p>     <p>If the circle is <strong>orange</strong>, press the letter O as fast as you can.</p>     <div style='width: 100%;'>         <div style='float: left;'>             <img src='img/blue.png'></img>             <p class='small'><strong>Press the <- key</strong></p>         </div>         <div class='float: right;'>             <img src='img/orange.png'></img>             <p class='small'><strong>Press the -> key</strong></p>         </div>     </div>     <br><p>Are you ready?</p>",
		"button_pressed": 0,
		"trial_type": "html-button-response",
		"trial_index": 3,
		"time_elapsed": 15131,
		"internal_node_id": "0.0-3.0",
		"participant_id": "d4q346hsdpfjwrw",
		"experiment_version": "0.0.1",
		"data_path": "data/202113111948_d4q346hsdpfjwrw",
		"date": "Wed Feb 17 2021 11:19:48 GMT+0800 (Singapore Standard Time)",
		"window_width": 803,
		"window_height": 766,
		"window_resolution": "803x766",
		"screen_width": 1440,
		"screen_height": 900,
		"screen_resolution": "1440x900",
		"screen_colordepth": 30,
		"screen_pixeldepth": 30,
		"screen_touchscreen": false,
		"browser_name": "Netscape",
		"browser_codename": "Mozilla",
		"browser_engine": "Gecko",
		"browser_version": "5.0 (Macintosh; Intel Mac OS X 10_15_7) AppleWebKit/537.36 (KHTML, like Gecko) Chrome/88.0.4324.150 Safari/537.36",
		"browser": "Mozilla/5.0 (Macintosh; Intel Mac OS X 10_15_7) AppleWebKit/537.36 (KHTML, like Gecko) Chrome/88.0.4324.150 Safari/537.36",
		"system_platform": "MacIntel",
		"system_language": "en-GB"
	},
	{
		"rt": null,
		"stimulus": "<div style='font-size:5em'>+</div>",
		"key_press": null,
		"object": "fixation_cross",
		"trial_type": "html-keyboard-response",
		"trial_index": 4,
		"time_elapsed": 15484,
		"internal_node_id": "0.0-4.0-0.0",
		"participant_id": "d4q346hsdpfjwrw",
		"experiment_version": "0.0.1",
		"data_path": "data/202113111948_d4q346hsdpfjwrw",
		"date": "Wed Feb 17 2021 11:19:48 GMT+0800 (Singapore Standard Time)",
		"window_width": 803,
		"window_height": 766,
		"window_resolution": "803x766",
		"screen_width": 1440,
		"screen_height": 900,
		"screen_resolution": "1440x900",
		"screen_colordepth": 30,
		"screen_pixeldepth": 30,
		"screen_touchscreen": false,
		"browser_name": "Netscape",
		"browser_codename": "Mozilla",
		"browser_engine": "Gecko",
		"browser_version": "5.0 (Macintosh; Intel Mac OS X 10_15_7) AppleWebKit/537.36 (KHTML, like Gecko) Chrome/88.0.4324.150 Safari/537.36",
		"browser": "Mozilla/5.0 (Macintosh; Intel Mac OS X 10_15_7) AppleWebKit/537.36 (KHTML, like Gecko) Chrome/88.0.4324.150 Safari/537.36",
		"system_platform": "MacIntel",
		"system_language": "en-GB"
	},
	{
		"rt": 2519.0700000093784,
		"stimulus": "stimuli/blue.png",
		"button_pressed": null,
		"key_press": 39,
		"answer": "rightarrow",
		"response_type": "Keyboard",
		"object": "stimulus",
		"correct_key": "leftarrow",
		"correct_button": "<-",
		"trial_type": "image-buttonkeyboard-response",
		"trial_index": 5,
		"time_elapsed": 18005,
		"internal_node_id": "0.0-4.0-1.0",
		"participant_id": "d4q346hsdpfjwrw",
		"experiment_version": "0.0.1",
		"data_path": "data/202113111948_d4q346hsdpfjwrw",
		"date": "Wed Feb 17 2021 11:19:48 GMT+0800 (Singapore Standard Time)",
		"window_width": 803,
		"window_height": 766,
		"window_resolution": "803x766",
		"screen_width": 1440,
		"screen_height": 900,
		"screen_resolution": "1440x900",
		"screen_colordepth": 30,
		"screen_pixeldepth": 30,
		"screen_touchscreen": false,
		"browser_name": "Netscape",
		"browser_codename": "Mozilla",
		"browser_engine": "Gecko",
		"browser_version": "5.0 (Macintosh; Intel Mac OS X 10_15_7) AppleWebKit/537.36 (KHTML, like Gecko) Chrome/88.0.4324.150 Safari/537.36",
		"browser": "Mozilla/5.0 (Macintosh; Intel Mac OS X 10_15_7) AppleWebKit/537.36 (KHTML, like Gecko) Chrome/88.0.4324.150 Safari/537.36",
		"system_platform": "MacIntel",
		"system_language": "en-GB",
		"prestimulus_duration": 353,
		"trial_number": 1,
		"correct": false
	},
	{
		"rt": null,
		"stimulus": "<p style='color:red; font-size:2em'><b>Wrong.</b></p><p>RT: 2519.07 ms</p>",
		"key_press": null,
		"trial_type": "html-keyboard-response",
		"trial_index": 6,
		"time_elapsed": 18508,
		"internal_node_id": "0.0-4.0-2.0",
		"participant_id": "d4q346hsdpfjwrw",
		"experiment_version": "0.0.1",
		"data_path": "data/202113111948_d4q346hsdpfjwrw",
		"date": "Wed Feb 17 2021 11:19:48 GMT+0800 (Singapore Standard Time)",
		"window_width": 803,
		"window_height": 766,
		"window_resolution": "803x766",
		"screen_width": 1440,
		"screen_height": 900,
		"screen_resolution": "1440x900",
		"screen_colordepth": 30,
		"screen_pixeldepth": 30,
		"screen_touchscreen": false,
		"browser_name": "Netscape",
		"browser_codename": "Mozilla",
		"browser_engine": "Gecko",
		"browser_version": "5.0 (Macintosh; Intel Mac OS X 10_15_7) AppleWebKit/537.36 (KHTML, like Gecko) Chrome/88.0.4324.150 Safari/537.36",
		"browser": "Mozilla/5.0 (Macintosh; Intel Mac OS X 10_15_7) AppleWebKit/537.36 (KHTML, like Gecko) Chrome/88.0.4324.150 Safari/537.36",
		"system_platform": "MacIntel",
		"system_language": "en-GB"
	},
	{
		"rt": null,
		"stimulus": "<div style='font-size:5em'>+</div>",
		"key_press": null,
		"object": "fixation_cross",
		"trial_type": "html-keyboard-response",
		"trial_index": 7,
		"time_elapsed": 18974,
		"internal_node_id": "0.0-4.0-0.1",
		"participant_id": "d4q346hsdpfjwrw",
		"experiment_version": "0.0.1",
		"data_path": "data/202113111948_d4q346hsdpfjwrw",
		"date": "Wed Feb 17 2021 11:19:48 GMT+0800 (Singapore Standard Time)",
		"window_width": 803,
		"window_height": 766,
		"window_resolution": "803x766",
		"screen_width": 1440,
		"screen_height": 900,
		"screen_resolution": "1440x900",
		"screen_colordepth": 30,
		"screen_pixeldepth": 30,
		"screen_touchscreen": false,
		"browser_name": "Netscape",
		"browser_codename": "Mozilla",
		"browser_engine": "Gecko",
		"browser_version": "5.0 (Macintosh; Intel Mac OS X 10_15_7) AppleWebKit/537.36 (KHTML, like Gecko) Chrome/88.0.4324.150 Safari/537.36",
		"browser": "Mozilla/5.0 (Macintosh; Intel Mac OS X 10_15_7) AppleWebKit/537.36 (KHTML, like Gecko) Chrome/88.0.4324.150 Safari/537.36",
		"system_platform": "MacIntel",
		"system_language": "en-GB"
	},
	{
		"rt": 477.55000001052395,
		"stimulus": "stimuli/orange.png",
		"button_pressed": null,
		"key_press": 39,
		"answer": "rightarrow",
		"response_type": "Keyboard",
		"object": "stimulus",
		"correct_key": "rightarrow",
		"correct_button": "->",
		"trial_type": "image-buttonkeyboard-response",
		"trial_index": 8,
		"time_elapsed": 19456,
		"internal_node_id": "0.0-4.0-1.1",
		"participant_id": "d4q346hsdpfjwrw",
		"experiment_version": "0.0.1",
		"data_path": "data/202113111948_d4q346hsdpfjwrw",
		"date": "Wed Feb 17 2021 11:19:48 GMT+0800 (Singapore Standard Time)",
		"window_width": 803,
		"window_height": 766,
		"window_resolution": "803x766",
		"screen_width": 1440,
		"screen_height": 900,
		"screen_resolution": "1440x900",
		"screen_colordepth": 30,
		"screen_pixeldepth": 30,
		"screen_touchscreen": false,
		"browser_name": "Netscape",
		"browser_codename": "Mozilla",
		"browser_engine": "Gecko",
		"browser_version": "5.0 (Macintosh; Intel Mac OS X 10_15_7) AppleWebKit/537.36 (KHTML, like Gecko) Chrome/88.0.4324.150 Safari/537.36",
		"browser": "Mozilla/5.0 (Macintosh; Intel Mac OS X 10_15_7) AppleWebKit/537.36 (KHTML, like Gecko) Chrome/88.0.4324.150 Safari/537.36",
		"system_platform": "MacIntel",
		"system_language": "en-GB",
		"prestimulus_duration": 466,
		"trial_number": 2,
		"correct": true
	},
	{
		"rt": null,
		"stimulus": "<p style='color:green; font-size:2em'><b>Correct!</b></p><p>RT: 477.55 ms</p>",
		"key_press": null,
		"trial_type": "html-keyboard-response",
		"trial_index": 9,
		"time_elapsed": 19957,
		"internal_node_id": "0.0-4.0-2.1",
		"participant_id": "d4q346hsdpfjwrw",
		"experiment_version": "0.0.1",
		"data_path": "data/202113111948_d4q346hsdpfjwrw",
		"date": "Wed Feb 17 2021 11:19:48 GMT+0800 (Singapore Standard Time)",
		"window_width": 803,
		"window_height": 766,
		"window_resolution": "803x766",
		"screen_width": 1440,
		"screen_height": 900,
		"screen_resolution": "1440x900",
		"screen_colordepth": 30,
		"screen_pixeldepth": 30,
		"screen_touchscreen": false,
		"browser_name": "Netscape",
		"browser_codename": "Mozilla",
		"browser_engine": "Gecko",
		"browser_version": "5.0 (Macintosh; Intel Mac OS X 10_15_7) AppleWebKit/537.36 (KHTML, like Gecko) Chrome/88.0.4324.150 Safari/537.36",
		"browser": "Mozilla/5.0 (Macintosh; Intel Mac OS X 10_15_7) AppleWebKit/537.36 (KHTML, like Gecko) Chrome/88.0.4324.150 Safari/537.36",
		"system_platform": "MacIntel",
		"system_language": "en-GB"
	},
	{
		"rt": null,
		"stimulus": "<div style='font-size:5em'>+</div>",
		"key_press": null,
		"object": "fixation_cross",
		"trial_type": "html-keyboard-response",
		"trial_index": 10,
		"time_elapsed": 20398,
		"internal_node_id": "0.0-4.0-0.2",
		"participant_id": "d4q346hsdpfjwrw",
		"experiment_version": "0.0.1",
		"data_path": "data/202113111948_d4q346hsdpfjwrw",
		"date": "Wed Feb 17 2021 11:19:48 GMT+0800 (Singapore Standard Time)",
		"window_width": 803,
		"window_height": 766,
		"window_resolution": "803x766",
		"screen_width": 1440,
		"screen_height": 900,
		"screen_resolution": "1440x900",
		"screen_colordepth": 30,
		"screen_pixeldepth": 30,
		"screen_touchscreen": false,
		"browser_name": "Netscape",
		"browser_codename": "Mozilla",
		"browser_engine": "Gecko",
		"browser_version": "5.0 (Macintosh; Intel Mac OS X 10_15_7) AppleWebKit/537.36 (KHTML, like Gecko) Chrome/88.0.4324.150 Safari/537.36",
		"browser": "Mozilla/5.0 (Macintosh; Intel Mac OS X 10_15_7) AppleWebKit/537.36 (KHTML, like Gecko) Chrome/88.0.4324.150 Safari/537.36",
		"system_platform": "MacIntel",
		"system_language": "en-GB"
	},
	{
		"rt": 749.4200000073761,
		"stimulus": "stimuli/blue.png",
		"button_pressed": null,
		"key_press": 39,
		"answer": "rightarrow",
		"response_type": "Keyboard",
		"object": "stimulus",
		"correct_key": "leftarrow",
		"correct_button": "<-",
		"trial_type": "image-buttonkeyboard-response",
		"trial_index": 11,
		"time_elapsed": 21149,
		"internal_node_id": "0.0-4.0-1.2",
		"participant_id": "d4q346hsdpfjwrw",
		"experiment_version": "0.0.1",
		"data_path": "data/202113111948_d4q346hsdpfjwrw",
		"date": "Wed Feb 17 2021 11:19:48 GMT+0800 (Singapore Standard Time)",
		"window_width": 803,
		"window_height": 766,
		"window_resolution": "803x766",
		"screen_width": 1440,
		"screen_height": 900,
		"screen_resolution": "1440x900",
		"screen_colordepth": 30,
		"screen_pixeldepth": 30,
		"screen_touchscreen": false,
		"browser_name": "Netscape",
		"browser_codename": "Mozilla",
		"browser_engine": "Gecko",
		"browser_version": "5.0 (Macintosh; Intel Mac OS X 10_15_7) AppleWebKit/537.36 (KHTML, like Gecko) Chrome/88.0.4324.150 Safari/537.36",
		"browser": "Mozilla/5.0 (Macintosh; Intel Mac OS X 10_15_7) AppleWebKit/537.36 (KHTML, like Gecko) Chrome/88.0.4324.150 Safari/537.36",
		"system_platform": "MacIntel",
		"system_language": "en-GB",
		"prestimulus_duration": 441,
		"trial_number": 3,
		"correct": false
	},
	{
		"rt": null,
		"stimulus": "<p style='color:red; font-size:2em'><b>Wrong.</b></p><p>RT: 749.42 ms</p>",
		"key_press": null,
		"trial_type": "html-keyboard-response",
		"trial_index": 12,
		"time_elapsed": 21651,
		"internal_node_id": "0.0-4.0-2.2",
		"participant_id": "d4q346hsdpfjwrw",
		"experiment_version": "0.0.1",
		"data_path": "data/202113111948_d4q346hsdpfjwrw",
		"date": "Wed Feb 17 2021 11:19:48 GMT+0800 (Singapore Standard Time)",
		"window_width": 803,
		"window_height": 766,
		"window_resolution": "803x766",
		"screen_width": 1440,
		"screen_height": 900,
		"screen_resolution": "1440x900",
		"screen_colordepth": 30,
		"screen_pixeldepth": 30,
		"screen_touchscreen": false,
		"browser_name": "Netscape",
		"browser_codename": "Mozilla",
		"browser_engine": "Gecko",
		"browser_version": "5.0 (Macintosh; Intel Mac OS X 10_15_7) AppleWebKit/537.36 (KHTML, like Gecko) Chrome/88.0.4324.150 Safari/537.36",
		"browser": "Mozilla/5.0 (Macintosh; Intel Mac OS X 10_15_7) AppleWebKit/537.36 (KHTML, like Gecko) Chrome/88.0.4324.150 Safari/537.36",
		"system_platform": "MacIntel",
		"system_language": "en-GB"
	},
	{
		"rt": null,
		"stimulus": "<div style='font-size:5em'>+</div>",
		"key_press": null,
		"object": "fixation_cross",
		"trial_type": "html-keyboard-response",
		"trial_index": 13,
		"time_elapsed": 22088,
		"internal_node_id": "0.0-4.0-0.3",
		"participant_id": "d4q346hsdpfjwrw",
		"experiment_version": "0.0.1",
		"data_path": "data/202113111948_d4q346hsdpfjwrw",
		"date": "Wed Feb 17 2021 11:19:48 GMT+0800 (Singapore Standard Time)",
		"window_width": 803,
		"window_height": 766,
		"window_resolution": "803x766",
		"screen_width": 1440,
		"screen_height": 900,
		"screen_resolution": "1440x900",
		"screen_colordepth": 30,
		"screen_pixeldepth": 30,
		"screen_touchscreen": false,
		"browser_name": "Netscape",
		"browser_codename": "Mozilla",
		"browser_engine": "Gecko",
		"browser_version": "5.0 (Macintosh; Intel Mac OS X 10_15_7) AppleWebKit/537.36 (KHTML, like Gecko) Chrome/88.0.4324.150 Safari/537.36",
		"browser": "Mozilla/5.0 (Macintosh; Intel Mac OS X 10_15_7) AppleWebKit/537.36 (KHTML, like Gecko) Chrome/88.0.4324.150 Safari/537.36",
		"system_platform": "MacIntel",
		"system_language": "en-GB"
	},
	{
		"rt": 424.71500000101514,
		"stimulus": "stimuli/orange.png",
		"button_pressed": null,
		"key_press": 39,
		"answer": "rightarrow",
		"response_type": "Keyboard",
		"object": "stimulus",
		"correct_key": "rightarrow",
		"correct_button": "->",
		"trial_type": "image-buttonkeyboard-response",
		"trial_index": 14,
		"time_elapsed": 22514,
		"internal_node_id": "0.0-4.0-1.3",
		"participant_id": "d4q346hsdpfjwrw",
		"experiment_version": "0.0.1",
		"data_path": "data/202113111948_d4q346hsdpfjwrw",
		"date": "Wed Feb 17 2021 11:19:48 GMT+0800 (Singapore Standard Time)",
		"window_width": 803,
		"window_height": 766,
		"window_resolution": "803x766",
		"screen_width": 1440,
		"screen_height": 900,
		"screen_resolution": "1440x900",
		"screen_colordepth": 30,
		"screen_pixeldepth": 30,
		"screen_touchscreen": false,
		"browser_name": "Netscape",
		"browser_codename": "Mozilla",
		"browser_engine": "Gecko",
		"browser_version": "5.0 (Macintosh; Intel Mac OS X 10_15_7) AppleWebKit/537.36 (KHTML, like Gecko) Chrome/88.0.4324.150 Safari/537.36",
		"browser": "Mozilla/5.0 (Macintosh; Intel Mac OS X 10_15_7) AppleWebKit/537.36 (KHTML, like Gecko) Chrome/88.0.4324.150 Safari/537.36",
		"system_platform": "MacIntel",
		"system_language": "en-GB",
		"prestimulus_duration": 437,
		"trial_number": 4,
		"correct": true
	},
	{
		"rt": null,
		"stimulus": "<p style='color:green; font-size:2em'><b>Correct!</b></p><p>RT: 424.72 ms</p>",
		"key_press": null,
		"trial_type": "html-keyboard-response",
		"trial_index": 15,
		"time_elapsed": 23018,
		"internal_node_id": "0.0-4.0-2.3",
		"participant_id": "d4q346hsdpfjwrw",
		"experiment_version": "0.0.1",
		"data_path": "data/202113111948_d4q346hsdpfjwrw",
		"date": "Wed Feb 17 2021 11:19:48 GMT+0800 (Singapore Standard Time)",
		"window_width": 803,
		"window_height": 766,
		"window_resolution": "803x766",
		"screen_width": 1440,
		"screen_height": 900,
		"screen_resolution": "1440x900",
		"screen_colordepth": 30,
		"screen_pixeldepth": 30,
		"screen_touchscreen": false,
		"browser_name": "Netscape",
		"browser_codename": "Mozilla",
		"browser_engine": "Gecko",
		"browser_version": "5.0 (Macintosh; Intel Mac OS X 10_15_7) AppleWebKit/537.36 (KHTML, like Gecko) Chrome/88.0.4324.150 Safari/537.36",
		"browser": "Mozilla/5.0 (Macintosh; Intel Mac OS X 10_15_7) AppleWebKit/537.36 (KHTML, like Gecko) Chrome/88.0.4324.150 Safari/537.36",
		"system_platform": "MacIntel",
		"system_language": "en-GB"
	},
	{
		"rt": 6323.574999987613,
		"stimulus": "<p><b>Overall, did you find this task easy?</b></p>",
		"slider_start": 50,
		"response": 99,
		"object": "information",
		"trial_type": "html-slider-response",
		"trial_index": 16,
		"time_elapsed": 29344,
		"internal_node_id": "0.0-5.0",
		"participant_id": "d4q346hsdpfjwrw",
		"experiment_version": "0.0.1",
		"data_path": "data/202113111948_d4q346hsdpfjwrw",
		"date": "Wed Feb 17 2021 11:19:48 GMT+0800 (Singapore Standard Time)",
		"window_width": 803,
		"window_height": 766,
		"window_resolution": "803x766",
		"screen_width": 1440,
		"screen_height": 900,
		"screen_resolution": "1440x900",
		"screen_colordepth": 30,
		"screen_pixeldepth": 30,
		"screen_touchscreen": false,
		"browser_name": "Netscape",
		"browser_codename": "Mozilla",
		"browser_engine": "Gecko",
		"browser_version": "5.0 (Macintosh; Intel Mac OS X 10_15_7) AppleWebKit/537.36 (KHTML, like Gecko) Chrome/88.0.4324.150 Safari/537.36",
		"browser": "Mozilla/5.0 (Macintosh; Intel Mac OS X 10_15_7) AppleWebKit/537.36 (KHTML, like Gecko) Chrome/88.0.4324.150 Safari/537.36",
		"system_platform": "MacIntel",
		"system_language": "en-GB"
	},
	{
		"rt": 3231.8899999954738,
		"stimulus": "<p><b>Thank you for participating!</b> Here are your results:</p><hr><p style='color:rgb(76,175,80);'>You responded correctly on <b>50.00%</b> of the trials.</p><p style='color:rgb(233,30,99);'>Your average response time was <b>451.13</b> ms.</p><hr><p> Don't hesitate to spread the word and share this experiment, science appreciates :)</p>",
		"button_pressed": 0,
		"object": "fixation_cross",
		"experiment_duration": 29614.529999991646,
		"trial_type": "html-button-response",
		"trial_index": 17,
		"time_elapsed": 32578,
		"internal_node_id": "0.0-6.0",
		"participant_id": "d4q346hsdpfjwrw",
		"experiment_version": "0.0.1",
		"data_path": "data/202113111948_d4q346hsdpfjwrw",
		"date": "Wed Feb 17 2021 11:19:48 GMT+0800 (Singapore Standard Time)",
		"window_width": 803,
		"window_height": 766,
		"window_resolution": "803x766",
		"screen_width": 1440,
		"screen_height": 900,
		"screen_resolution": "1440x900",
		"screen_colordepth": 30,
		"screen_pixeldepth": 30,
		"screen_touchscreen": false,
		"browser_name": "Netscape",
		"browser_codename": "Mozilla",
		"browser_engine": "Gecko",
		"browser_version": "5.0 (Macintosh; Intel Mac OS X 10_15_7) AppleWebKit/537.36 (KHTML, like Gecko) Chrome/88.0.4324.150 Safari/537.36",
		"browser": "Mozilla/5.0 (Macintosh; Intel Mac OS X 10_15_7) AppleWebKit/537.36 (KHTML, like Gecko) Chrome/88.0.4324.150 Safari/537.36",
		"system_platform": "MacIntel",
		"system_language": "en-GB"
	}
]