[
	{
		"rt": 1333.9649999979883,
		"stimulus": "    <p><b>Welcome to the experiment! Please read the information below.</b></p>     <hr>     <p><i>Here are the terms and conditions. Blabla something something.</i><p>     <p><i>Another paragraph blabla something else.</i><p>",
		"button_pressed": 0,
		"trial_type": "html-button-response",
		"trial_index": 0,
		"time_elapsed": 1336,
		"internal_node_id": "0.0-0.0",
		"participant_id": "j1emd48gz5145g2",
		"experiment_version": "0.0.1",
		"data_path": "data/20211315214_j1emd48gz5145g2",
		"date": "Wed Feb 17 2021 15:02:14 GMT+0800 (Singapore Standard Time)",
		"window_width": 2560,
		"window_height": 1306,
		"window_resolution": "2560x1306",
		"screen_width": 2560,
		"screen_height": 1440,
		"screen_resolution": "2560x1440",
		"screen_colordepth": 24,
		"screen_pixeldepth": 24,
		"screen_touchscreen": false,
		"browser_name": "Netscape",
		"browser_codename": "Mozilla",
		"browser_engine": "Gecko",
		"browser_version": "5.0 (Macintosh; Intel Mac OS X 10_15_7) AppleWebKit/537.36 (KHTML, like Gecko) Chrome/88.0.4324.150 Safari/537.36",
		"browser": "Mozilla/5.0 (Macintosh; Intel Mac OS X 10_15_7) AppleWebKit/537.36 (KHTML, like Gecko) Chrome/88.0.4324.150 Safari/537.36",
		"system_platform": "MacIntel",
		"system_language": "en-GB"
	},
	{
		"rt": 2559.819999994943,
		"responses": "{\"Age\":\"df\",\"Initials\":\"df\"}",
		"object": "information",
		"trial_type": "survey-text",
		"trial_index": 1,
		"time_elapsed": 3900,
		"internal_node_id": "0.0-1.0",
		"participant_id": "j1emd48gz5145g2",
		"experiment_version": "0.0.1",
		"data_path": "data/20211315214_j1emd48gz5145g2",
		"date": "Wed Feb 17 2021 15:02:14 GMT+0800 (Singapore Standard Time)",
		"window_width": 2560,
		"window_height": 1306,
		"window_resolution": "2560x1306",
		"screen_width": 2560,
		"screen_height": 1440,
		"screen_resolution": "2560x1440",
		"screen_colordepth": 24,
		"screen_pixeldepth": 24,
		"screen_touchscreen": false,
		"browser_name": "Netscape",
		"browser_codename": "Mozilla",
		"browser_engine": "Gecko",
		"browser_version": "5.0 (Macintosh; Intel Mac OS X 10_15_7) AppleWebKit/537.36 (KHTML, like Gecko) Chrome/88.0.4324.150 Safari/537.36",
		"browser": "Mozilla/5.0 (Macintosh; Intel Mac OS X 10_15_7) AppleWebKit/537.36 (KHTML, like Gecko) Chrome/88.0.4324.150 Safari/537.36",
		"system_platform": "MacIntel",
		"system_language": "en-GB"
	},
	{
		"rt": 1696.8249999918044,
		"responses": "{\"AlreadyPlayed\":\"No\"}",
		"question_order": "[0]",
		"object": "information",
		"trial_type": "survey-multi-choice",
		"trial_index": 2,
		"time_elapsed": 5598,
		"internal_node_id": "0.0-2.0",
		"participant_id": "j1emd48gz5145g2",
		"experiment_version": "0.0.1",
		"data_path": "data/20211315214_j1emd48gz5145g2",
		"date": "Wed Feb 17 2021 15:02:14 GMT+0800 (Singapore Standard Time)",
		"window_width": 2560,
		"window_height": 1306,
		"window_resolution": "2560x1306",
		"screen_width": 2560,
		"screen_height": 1440,
		"screen_resolution": "2560x1440",
		"screen_colordepth": 24,
		"screen_pixeldepth": 24,
		"screen_touchscreen": false,
		"browser_name": "Netscape",
		"browser_codename": "Mozilla",
		"browser_engine": "Gecko",
		"browser_version": "5.0 (Macintosh; Intel Mac OS X 10_15_7) AppleWebKit/537.36 (KHTML, like Gecko) Chrome/88.0.4324.150 Safari/537.36",
		"browser": "Mozilla/5.0 (Macintosh; Intel Mac OS X 10_15_7) AppleWebKit/537.36 (KHTML, like Gecko) Chrome/88.0.4324.150 Safari/537.36",
		"system_platform": "MacIntel",
		"system_language": "en-GB"
	},
	{
		"rt": 3831.034999981057,
		"stimulus": "    <p>In this experiment, a circle will appear in the center of the screen.</p>     <p>If the circle is <strong>blue</strong>, press the letter B on the keyboard as fast as you can.</p>     <p>If the circle is <strong>orange</strong>, press the letter O as fast as you can.</p>     <div style='width: 100%;'>         <div style='float: left;'>             <img src='img/blue.png'></img>             <p class='small'><strong>Press the <- key</strong></p>         </div>         <div class='float: right;'>             <img src='img/orange.png'></img>             <p class='small'><strong>Press the -> key</strong></p>         </div>     </div>     <br><p>Are you ready?</p>",
		"button_pressed": 0,
		"trial_type": "html-button-response",
		"trial_index": 3,
		"time_elapsed": 9434,
		"internal_node_id": "0.0-3.0",
		"participant_id": "j1emd48gz5145g2",
		"experiment_version": "0.0.1",
		"data_path": "data/20211315214_j1emd48gz5145g2",
		"date": "Wed Feb 17 2021 15:02:14 GMT+0800 (Singapore Standard Time)",
		"window_width": 2560,
		"window_height": 1306,
		"window_resolution": "2560x1306",
		"screen_width": 2560,
		"screen_height": 1440,
		"screen_resolution": "2560x1440",
		"screen_colordepth": 24,
		"screen_pixeldepth": 24,
		"screen_touchscreen": false,
		"browser_name": "Netscape",
		"browser_codename": "Mozilla",
		"browser_engine": "Gecko",
		"browser_version": "5.0 (Macintosh; Intel Mac OS X 10_15_7) AppleWebKit/537.36 (KHTML, like Gecko) Chrome/88.0.4324.150 Safari/537.36",
		"browser": "Mozilla/5.0 (Macintosh; Intel Mac OS X 10_15_7) AppleWebKit/537.36 (KHTML, like Gecko) Chrome/88.0.4324.150 Safari/537.36",
		"system_platform": "MacIntel",
		"system_language": "en-GB"
	},
	{
		"rt": null,
		"stimulus": "<div style='font-size:5em'>+</div>",
		"key_press": null,
		"object": "fixation_cross",
		"trial_type": "html-keyboard-response",
		"trial_index": 4,
		"time_elapsed": 10063,
		"internal_node_id": "0.0-4.0-0.0",
		"participant_id": "j1emd48gz5145g2",
		"experiment_version": "0.0.1",
		"data_path": "data/20211315214_j1emd48gz5145g2",
		"date": "Wed Feb 17 2021 15:02:14 GMT+0800 (Singapore Standard Time)",
		"window_width": 2560,
		"window_height": 1306,
		"window_resolution": "2560x1306",
		"screen_width": 2560,
		"screen_height": 1440,
		"screen_resolution": "2560x1440",
		"screen_colordepth": 24,
		"screen_pixeldepth": 24,
		"screen_touchscreen": false,
		"browser_name": "Netscape",
		"browser_codename": "Mozilla",
		"browser_engine": "Gecko",
		"browser_version": "5.0 (Macintosh; Intel Mac OS X 10_15_7) AppleWebKit/537.36 (KHTML, like Gecko) Chrome/88.0.4324.150 Safari/537.36",
		"browser": "Mozilla/5.0 (Macintosh; Intel Mac OS X 10_15_7) AppleWebKit/537.36 (KHTML, like Gecko) Chrome/88.0.4324.150 Safari/537.36",
		"system_platform": "MacIntel",
		"system_language": "en-GB"
	},
	{
		"rt": 715.3199999884237,
		"stimulus": "stimuli/blue.png",
		"button_pressed": null,
		"key_press": 37,
		"answer": "leftarrow",
		"response_type": "Keyboard",
		"object": "stimulus",
		"correct_key": "leftarrow",
		"correct_button": "<-",
		"trial_type": "image-buttonkeyboard-response",
		"trial_index": 5,
		"time_elapsed": 10781,
		"internal_node_id": "0.0-4.0-1.0",
		"participant_id": "j1emd48gz5145g2",
		"experiment_version": "0.0.1",
		"data_path": "data/20211315214_j1emd48gz5145g2",
		"date": "Wed Feb 17 2021 15:02:14 GMT+0800 (Singapore Standard Time)",
		"window_width": 2560,
		"window_height": 1306,
		"window_resolution": "2560x1306",
		"screen_width": 2560,
		"screen_height": 1440,
		"screen_resolution": "2560x1440",
		"screen_colordepth": 24,
		"screen_pixeldepth": 24,
		"screen_touchscreen": false,
		"browser_name": "Netscape",
		"browser_codename": "Mozilla",
		"browser_engine": "Gecko",
		"browser_version": "5.0 (Macintosh; Intel Mac OS X 10_15_7) AppleWebKit/537.36 (KHTML, like Gecko) Chrome/88.0.4324.150 Safari/537.36",
		"browser": "Mozilla/5.0 (Macintosh; Intel Mac OS X 10_15_7) AppleWebKit/537.36 (KHTML, like Gecko) Chrome/88.0.4324.150 Safari/537.36",
		"system_platform": "MacIntel",
		"system_language": "en-GB",
		"prestimulus_duration": 629,
		"trial_number": 1,
		"correct": true
	},
	{
		"rt": null,
		"stimulus": "<p style='color:green; font-size:2em'><b>Correct!</b></p><p>RT: 715.32 ms</p>",
		"key_press": null,
		"trial_type": "html-keyboard-response",
		"trial_index": 6,
		"time_elapsed": 11282,
		"internal_node_id": "0.0-4.0-2.0",
		"participant_id": "j1emd48gz5145g2",
		"experiment_version": "0.0.1",
		"data_path": "data/20211315214_j1emd48gz5145g2",
		"date": "Wed Feb 17 2021 15:02:14 GMT+0800 (Singapore Standard Time)",
		"window_width": 2560,
		"window_height": 1306,
		"window_resolution": "2560x1306",
		"screen_width": 2560,
		"screen_height": 1440,
		"screen_resolution": "2560x1440",
		"screen_colordepth": 24,
		"screen_pixeldepth": 24,
		"screen_touchscreen": false,
		"browser_name": "Netscape",
		"browser_codename": "Mozilla",
		"browser_engine": "Gecko",
		"browser_version": "5.0 (Macintosh; Intel Mac OS X 10_15_7) AppleWebKit/537.36 (KHTML, like Gecko) Chrome/88.0.4324.150 Safari/537.36",
		"browser": "Mozilla/5.0 (Macintosh; Intel Mac OS X 10_15_7) AppleWebKit/537.36 (KHTML, like Gecko) Chrome/88.0.4324.150 Safari/537.36",
		"system_platform": "MacIntel",
		"system_language": "en-GB"
	},
	{
		"rt": null,
		"stimulus": "<div style='font-size:5em'>+</div>",
		"key_press": null,
		"object": "fixation_cross",
		"trial_type": "html-keyboard-response",
		"trial_index": 7,
		"time_elapsed": 11863,
		"internal_node_id": "0.0-4.0-0.1",
		"participant_id": "j1emd48gz5145g2",
		"experiment_version": "0.0.1",
		"data_path": "data/20211315214_j1emd48gz5145g2",
		"date": "Wed Feb 17 2021 15:02:14 GMT+0800 (Singapore Standard Time)",
		"window_width": 2560,
		"window_height": 1306,
		"window_resolution": "2560x1306",
		"screen_width": 2560,
		"screen_height": 1440,
		"screen_resolution": "2560x1440",
		"screen_colordepth": 24,
		"screen_pixeldepth": 24,
		"screen_touchscreen": false,
		"browser_name": "Netscape",
		"browser_codename": "Mozilla",
		"browser_engine": "Gecko",
		"browser_version": "5.0 (Macintosh; Intel Mac OS X 10_15_7) AppleWebKit/537.36 (KHTML, like Gecko) Chrome/88.0.4324.150 Safari/537.36",
		"browser": "Mozilla/5.0 (Macintosh; Intel Mac OS X 10_15_7) AppleWebKit/537.36 (KHTML, like Gecko) Chrome/88.0.4324.150 Safari/537.36",
		"system_platform": "MacIntel",
		"system_language": "en-GB"
	},
	{
		"rt": 426.63999999058433,
		"stimulus": "stimuli/orange.png",
		"button_pressed": null,
		"key_press": 39,
		"answer": "rightarrow",
		"response_type": "Keyboard",
		"object": "stimulus",
		"correct_key": "rightarrow",
		"correct_button": "->",
		"trial_type": "image-buttonkeyboard-response",
		"trial_index": 8,
		"time_elapsed": 12291,
		"internal_node_id": "0.0-4.0-1.1",
		"participant_id": "j1emd48gz5145g2",
		"experiment_version": "0.0.1",
		"data_path": "data/20211315214_j1emd48gz5145g2",
		"date": "Wed Feb 17 2021 15:02:14 GMT+0800 (Singapore Standard Time)",
		"window_width": 2560,
		"window_height": 1306,
		"window_resolution": "2560x1306",
		"screen_width": 2560,
		"screen_height": 1440,
		"screen_resolution": "2560x1440",
		"screen_colordepth": 24,
		"screen_pixeldepth": 24,
		"screen_touchscreen": false,
		"browser_name": "Netscape",
		"browser_codename": "Mozilla",
		"browser_engine": "Gecko",
		"browser_version": "5.0 (Macintosh; Intel Mac OS X 10_15_7) AppleWebKit/537.36 (KHTML, like Gecko) Chrome/88.0.4324.150 Safari/537.36",
		"browser": "Mozilla/5.0 (Macintosh; Intel Mac OS X 10_15_7) AppleWebKit/537.36 (KHTML, like Gecko) Chrome/88.0.4324.150 Safari/537.36",
		"system_platform": "MacIntel",
		"system_language": "en-GB",
		"prestimulus_duration": 581,
		"trial_number": 2,
		"correct": true
	},
	{
		"rt": null,
		"stimulus": "<p style='color:green; font-size:2em'><b>Correct!</b></p><p>RT: 426.64 ms</p>",
		"key_press": null,
		"trial_type": "html-keyboard-response",
		"trial_index": 9,
		"time_elapsed": 12795,
		"internal_node_id": "0.0-4.0-2.1",
		"participant_id": "j1emd48gz5145g2",
		"experiment_version": "0.0.1",
		"data_path": "data/20211315214_j1emd48gz5145g2",
		"date": "Wed Feb 17 2021 15:02:14 GMT+0800 (Singapore Standard Time)",
		"window_width": 2560,
		"window_height": 1306,
		"window_resolution": "2560x1306",
		"screen_width": 2560,
		"screen_height": 1440,
		"screen_resolution": "2560x1440",
		"screen_colordepth": 24,
		"screen_pixeldepth": 24,
		"screen_touchscreen": false,
		"browser_name": "Netscape",
		"browser_codename": "Mozilla",
		"browser_engine": "Gecko",
		"browser_version": "5.0 (Macintosh; Intel Mac OS X 10_15_7) AppleWebKit/537.36 (KHTML, like Gecko) Chrome/88.0.4324.150 Safari/537.36",
		"browser": "Mozilla/5.0 (Macintosh; Intel Mac OS X 10_15_7) AppleWebKit/537.36 (KHTML, like Gecko) Chrome/88.0.4324.150 Safari/537.36",
		"system_platform": "MacIntel",
		"system_language": "en-GB"
	},
	{
		"rt": null,
		"stimulus": "<div style='font-size:5em'>+</div>",
		"key_press": null,
		"object": "fixation_cross",
		"trial_type": "html-keyboard-response",
		"trial_index": 10,
		"time_elapsed": 13234,
		"internal_node_id": "0.0-4.0-0.2",
		"participant_id": "j1emd48gz5145g2",
		"experiment_version": "0.0.1",
		"data_path": "data/20211315214_j1emd48gz5145g2",
		"date": "Wed Feb 17 2021 15:02:14 GMT+0800 (Singapore Standard Time)",
		"window_width": 2560,
		"window_height": 1306,
		"window_resolution": "2560x1306",
		"screen_width": 2560,
		"screen_height": 1440,
		"screen_resolution": "2560x1440",
		"screen_colordepth": 24,
		"screen_pixeldepth": 24,
		"screen_touchscreen": false,
		"browser_name": "Netscape",
		"browser_codename": "Mozilla",
		"browser_engine": "Gecko",
		"browser_version": "5.0 (Macintosh; Intel Mac OS X 10_15_7) AppleWebKit/537.36 (KHTML, like Gecko) Chrome/88.0.4324.150 Safari/537.36",
		"browser": "Mozilla/5.0 (Macintosh; Intel Mac OS X 10_15_7) AppleWebKit/537.36 (KHTML, like Gecko) Chrome/88.0.4324.150 Safari/537.36",
		"system_platform": "MacIntel",
		"system_language": "en-GB"
	},
	{
		"rt": 408.98000000743195,
		"stimulus": "stimuli/orange.png",
		"button_pressed": null,
		"key_press": 39,
		"answer": "rightarrow",
		"response_type": "Keyboard",
		"object": "stimulus",
		"correct_key": "rightarrow",
		"correct_button": "->",
		"trial_type": "image-buttonkeyboard-response",
		"trial_index": 11,
		"time_elapsed": 13645,
		"internal_node_id": "0.0-4.0-1.2",
		"participant_id": "j1emd48gz5145g2",
		"experiment_version": "0.0.1",
		"data_path": "data/20211315214_j1emd48gz5145g2",
		"date": "Wed Feb 17 2021 15:02:14 GMT+0800 (Singapore Standard Time)",
		"window_width": 2560,
		"window_height": 1306,
		"window_resolution": "2560x1306",
		"screen_width": 2560,
		"screen_height": 1440,
		"screen_resolution": "2560x1440",
		"screen_colordepth": 24,
		"screen_pixeldepth": 24,
		"screen_touchscreen": false,
		"browser_name": "Netscape",
		"browser_codename": "Mozilla",
		"browser_engine": "Gecko",
		"browser_version": "5.0 (Macintosh; Intel Mac OS X 10_15_7) AppleWebKit/537.36 (KHTML, like Gecko) Chrome/88.0.4324.150 Safari/537.36",
		"browser": "Mozilla/5.0 (Macintosh; Intel Mac OS X 10_15_7) AppleWebKit/537.36 (KHTML, like Gecko) Chrome/88.0.4324.150 Safari/537.36",
		"system_platform": "MacIntel",
		"system_language": "en-GB",
		"prestimulus_duration": 439,
		"trial_number": 3,
		"correct": true
	},
	{
		"rt": null,
		"stimulus": "<p style='color:green; font-size:2em'><b>Correct!</b></p><p>RT: 408.98 ms</p>",
		"key_press": null,
		"trial_type": "html-keyboard-response",
		"trial_index": 12,
		"time_elapsed": 14149,
		"internal_node_id": "0.0-4.0-2.2",
		"participant_id": "j1emd48gz5145g2",
		"experiment_version": "0.0.1",
		"data_path": "data/20211315214_j1emd48gz5145g2",
		"date": "Wed Feb 17 2021 15:02:14 GMT+0800 (Singapore Standard Time)",
		"window_width": 2560,
		"window_height": 1306,
		"window_resolution": "2560x1306",
		"screen_width": 2560,
		"screen_height": 1440,
		"screen_resolution": "2560x1440",
		"screen_colordepth": 24,
		"screen_pixeldepth": 24,
		"screen_touchscreen": false,
		"browser_name": "Netscape",
		"browser_codename": "Mozilla",
		"browser_engine": "Gecko",
		"browser_version": "5.0 (Macintosh; Intel Mac OS X 10_15_7) AppleWebKit/537.36 (KHTML, like Gecko) Chrome/88.0.4324.150 Safari/537.36",
		"browser": "Mozilla/5.0 (Macintosh; Intel Mac OS X 10_15_7) AppleWebKit/537.36 (KHTML, like Gecko) Chrome/88.0.4324.150 Safari/537.36",
		"system_platform": "MacIntel",
		"system_language": "en-GB"
	},
	{
		"rt": null,
		"stimulus": "<div style='font-size:5em'>+</div>",
		"key_press": null,
		"object": "fixation_cross",
		"trial_type": "html-keyboard-response",
		"trial_index": 13,
		"time_elapsed": 14875,
		"internal_node_id": "0.0-4.0-0.3",
		"participant_id": "j1emd48gz5145g2",
		"experiment_version": "0.0.1",
		"data_path": "data/20211315214_j1emd48gz5145g2",
		"date": "Wed Feb 17 2021 15:02:14 GMT+0800 (Singapore Standard Time)",
		"window_width": 2560,
		"window_height": 1306,
		"window_resolution": "2560x1306",
		"screen_width": 2560,
		"screen_height": 1440,
		"screen_resolution": "2560x1440",
		"screen_colordepth": 24,
		"screen_pixeldepth": 24,
		"screen_touchscreen": false,
		"browser_name": "Netscape",
		"browser_codename": "Mozilla",
		"browser_engine": "Gecko",
		"browser_version": "5.0 (Macintosh; Intel Mac OS X 10_15_7) AppleWebKit/537.36 (KHTML, like Gecko) Chrome/88.0.4324.150 Safari/537.36",
		"browser": "Mozilla/5.0 (Macintosh; Intel Mac OS X 10_15_7) AppleWebKit/537.36 (KHTML, like Gecko) Chrome/88.0.4324.150 Safari/537.36",
		"system_platform": "MacIntel",
		"system_language": "en-GB"
	},
	{
		"rt": 534.5650000090245,
		"stimulus": "stimuli/blue.png",
		"button_pressed": null,
		"key_press": 37,
		"answer": "leftarrow",
		"response_type": "Keyboard",
		"object": "stimulus",
		"correct_key": "leftarrow",
		"correct_button": "<-",
		"trial_type": "image-buttonkeyboard-response",
		"trial_index": 14,
		"time_elapsed": 15411,
		"internal_node_id": "0.0-4.0-1.3",
		"participant_id": "j1emd48gz5145g2",
		"experiment_version": "0.0.1",
		"data_path": "data/20211315214_j1emd48gz5145g2",
		"date": "Wed Feb 17 2021 15:02:14 GMT+0800 (Singapore Standard Time)",
		"window_width": 2560,
		"window_height": 1306,
		"window_resolution": "2560x1306",
		"screen_width": 2560,
		"screen_height": 1440,
		"screen_resolution": "2560x1440",
		"screen_colordepth": 24,
		"screen_pixeldepth": 24,
		"screen_touchscreen": false,
		"browser_name": "Netscape",
		"browser_codename": "Mozilla",
		"browser_engine": "Gecko",
		"browser_version": "5.0 (Macintosh; Intel Mac OS X 10_15_7) AppleWebKit/537.36 (KHTML, like Gecko) Chrome/88.0.4324.150 Safari/537.36",
		"browser": "Mozilla/5.0 (Macintosh; Intel Mac OS X 10_15_7) AppleWebKit/537.36 (KHTML, like Gecko) Chrome/88.0.4324.150 Safari/537.36",
		"system_platform": "MacIntel",
		"system_language": "en-GB",
		"prestimulus_duration": 726,
		"trial_number": 4,
		"correct": true
	},
	{
		"rt": null,
		"stimulus": "<p style='color:green; font-size:2em'><b>Correct!</b></p><p>RT: 534.57 ms</p>",
		"key_press": null,
		"trial_type": "html-keyboard-response",
		"trial_index": 15,
		"time_elapsed": 15913,
		"internal_node_id": "0.0-4.0-2.3",
		"participant_id": "j1emd48gz5145g2",
		"experiment_version": "0.0.1",
		"data_path": "data/20211315214_j1emd48gz5145g2",
		"date": "Wed Feb 17 2021 15:02:14 GMT+0800 (Singapore Standard Time)",
		"window_width": 2560,
		"window_height": 1306,
		"window_resolution": "2560x1306",
		"screen_width": 2560,
		"screen_height": 1440,
		"screen_resolution": "2560x1440",
		"screen_colordepth": 24,
		"screen_pixeldepth": 24,
		"screen_touchscreen": false,
		"browser_name": "Netscape",
		"browser_codename": "Mozilla",
		"browser_engine": "Gecko",
		"browser_version": "5.0 (Macintosh; Intel Mac OS X 10_15_7) AppleWebKit/537.36 (KHTML, like Gecko) Chrome/88.0.4324.150 Safari/537.36",
		"browser": "Mozilla/5.0 (Macintosh; Intel Mac OS X 10_15_7) AppleWebKit/537.36 (KHTML, like Gecko) Chrome/88.0.4324.150 Safari/537.36",
		"system_platform": "MacIntel",
		"system_language": "en-GB"
	},
	{
		"rt": 3068.569999973988,
		"stimulus": "<p><b>Overall, did you find this task easy?</b></p>",
		"slider_start": 50,
		"response": 100,
		"object": "information",
		"trial_type": "html-slider-response",
		"trial_index": 16,
		"time_elapsed": 18983,
		"internal_node_id": "0.0-5.0",
		"participant_id": "j1emd48gz5145g2",
		"experiment_version": "0.0.1",
		"data_path": "data/20211315214_j1emd48gz5145g2",
		"date": "Wed Feb 17 2021 15:02:14 GMT+0800 (Singapore Standard Time)",
		"window_width": 2560,
		"window_height": 1306,
		"window_resolution": "2560x1306",
		"screen_width": 2560,
		"screen_height": 1440,
		"screen_resolution": "2560x1440",
		"screen_colordepth": 24,
		"screen_pixeldepth": 24,
		"screen_touchscreen": false,
		"browser_name": "Netscape",
		"browser_codename": "Mozilla",
		"browser_engine": "Gecko",
		"browser_version": "5.0 (Macintosh; Intel Mac OS X 10_15_7) AppleWebKit/537.36 (KHTML, like Gecko) Chrome/88.0.4324.150 Safari/537.36",
		"browser": "Mozilla/5.0 (Macintosh; Intel Mac OS X 10_15_7) AppleWebKit/537.36 (KHTML, like Gecko) Chrome/88.0.4324.150 Safari/537.36",
		"system_platform": "MacIntel",
		"system_language": "en-GB"
	},
	{
		"rt": 1707.0149999926798,
		"stimulus": "<p><b>Thank you for participating!</b> Here are your results:</p><hr><p style='color:rgb(76,175,80);'>You responded correctly on <b>100.00%</b> of the trials.</p><p style='color:rgb(233,30,99);'>Your average response time was <b>521.38</b> ms.</p><hr><p> Don't hesitate to spread the word and share this experiment, science appreciates :)</p>",
		"button_pressed": 0,
		"object": "fixation_cross",
		"experiment_duration": 19063.014999992447,
		"trial_type": "html-button-response",
		"trial_index": 17,
		"time_elapsed": 20692,
		"internal_node_id": "0.0-6.0",
		"participant_id": "j1emd48gz5145g2",
		"experiment_version": "0.0.1",
		"data_path": "data/20211315214_j1emd48gz5145g2",
		"date": "Wed Feb 17 2021 15:02:14 GMT+0800 (Singapore Standard Time)",
		"window_width": 2560,
		"window_height": 1306,
		"window_resolution": "2560x1306",
		"screen_width": 2560,
		"screen_height": 1440,
		"screen_resolution": "2560x1440",
		"screen_colordepth": 24,
		"screen_pixeldepth": 24,
		"screen_touchscreen": false,
		"browser_name": "Netscape",
		"browser_codename": "Mozilla",
		"browser_engine": "Gecko",
		"browser_version": "5.0 (Macintosh; Intel Mac OS X 10_15_7) AppleWebKit/537.36 (KHTML, like Gecko) Chrome/88.0.4324.150 Safari/537.36",
		"browser": "Mozilla/5.0 (Macintosh; Intel Mac OS X 10_15_7) AppleWebKit/537.36 (KHTML, like Gecko) Chrome/88.0.4324.150 Safari/537.36",
		"system_platform": "MacIntel",
		"system_language": "en-GB"
	}
]