[
	{
		"rt": 7111.720000044443,
		"stimulus": "    <p><b>Welcome to the experiment! Please read the information below.</b></p>     <hr>     <p><i>Here are the terms and conditions. Blabla something something.</i><p>     <p><i>Another paragraph blabla something else.</i><p>",
		"button_pressed": 0,
		"trial_type": "html-button-response",
		"trial_index": 0,
		"time_elapsed": 7129,
		"internal_node_id": "0.0-0.0",
		"participant_id": "mlqg29oc6307k1z",
		"experiment_version": "0.0.1",
		"data_path": "data/2021149178_mlqg29oc6307k1z",
		"date": "Thu Feb 18 2021 09:17:08 GMT+0800 (Singapore Standard Time)",
		"window_width": 2560,
		"window_height": 1297,
		"window_resolution": "2560x1297",
		"screen_width": 2560,
		"screen_height": 1440,
		"screen_resolution": "2560x1440",
		"screen_colordepth": 24,
		"screen_pixeldepth": 24,
		"screen_touchscreen": false,
		"browser_name": "Netscape",
		"browser_codename": "Mozilla",
		"browser_engine": "Gecko",
		"browser_version": "5.0 (Windows NT 10.0; Win64; x64) AppleWebKit/537.36 (KHTML, like Gecko) Chrome/88.0.4324.182 Safari/537.36",
		"browser": "Mozilla/5.0 (Windows NT 10.0; Win64; x64) AppleWebKit/537.36 (KHTML, like Gecko) Chrome/88.0.4324.182 Safari/537.36",
		"system_platform": "Win32",
		"system_language": "fr-FR"
	},
	{
		"rt": 1319.4800000055693,
		"responses": "{\"Age\":\"b\",\"Initials\":\"\"}",
		"object": "information",
		"trial_type": "survey-text",
		"trial_index": 1,
		"time_elapsed": 8454,
		"internal_node_id": "0.0-1.0",
		"participant_id": "mlqg29oc6307k1z",
		"experiment_version": "0.0.1",
		"data_path": "data/2021149178_mlqg29oc6307k1z",
		"date": "Thu Feb 18 2021 09:17:08 GMT+0800 (Singapore Standard Time)",
		"window_width": 2560,
		"window_height": 1297,
		"window_resolution": "2560x1297",
		"screen_width": 2560,
		"screen_height": 1440,
		"screen_resolution": "2560x1440",
		"screen_colordepth": 24,
		"screen_pixeldepth": 24,
		"screen_touchscreen": false,
		"browser_name": "Netscape",
		"browser_codename": "Mozilla",
		"browser_engine": "Gecko",
		"browser_version": "5.0 (Windows NT 10.0; Win64; x64) AppleWebKit/537.36 (KHTML, like Gecko) Chrome/88.0.4324.182 Safari/537.36",
		"browser": "Mozilla/5.0 (Windows NT 10.0; Win64; x64) AppleWebKit/537.36 (KHTML, like Gecko) Chrome/88.0.4324.182 Safari/537.36",
		"system_platform": "Win32",
		"system_language": "fr-FR"
	},
	{
		"rt": 1780.3450000355951,
		"responses": "{\"AlreadyPlayed\":\"Yes\"}",
		"question_order": "[0]",
		"object": "information",
		"trial_type": "survey-multi-choice",
		"trial_index": 2,
		"time_elapsed": 10235,
		"internal_node_id": "0.0-2.0",
		"participant_id": "mlqg29oc6307k1z",
		"experiment_version": "0.0.1",
		"data_path": "data/2021149178_mlqg29oc6307k1z",
		"date": "Thu Feb 18 2021 09:17:08 GMT+0800 (Singapore Standard Time)",
		"window_width": 2560,
		"window_height": 1297,
		"window_resolution": "2560x1297",
		"screen_width": 2560,
		"screen_height": 1440,
		"screen_resolution": "2560x1440",
		"screen_colordepth": 24,
		"screen_pixeldepth": 24,
		"screen_touchscreen": false,
		"browser_name": "Netscape",
		"browser_codename": "Mozilla",
		"browser_engine": "Gecko",
		"browser_version": "5.0 (Windows NT 10.0; Win64; x64) AppleWebKit/537.36 (KHTML, like Gecko) Chrome/88.0.4324.182 Safari/537.36",
		"browser": "Mozilla/5.0 (Windows NT 10.0; Win64; x64) AppleWebKit/537.36 (KHTML, like Gecko) Chrome/88.0.4324.182 Safari/537.36",
		"system_platform": "Win32",
		"system_language": "fr-FR"
	},
	{
		"rt": 1115.7250000396743,
		"stimulus": "    <p>In this experiment, a circle will appear in the center of the screen.</p>     <p>If the circle is <strong>blue</strong>, press the letter B on the keyboard as fast as you can.</p>     <p>If the circle is <strong>orange</strong>, press the letter O as fast as you can.</p>     <div style='width: 100%;'>         <div style='float: left;'>             <img src='img/blue.png'></img>             <p class='small'><strong>Press the <- key</strong></p>         </div>         <div class='float: right;'>             <img src='img/orange.png'></img>             <p class='small'><strong>Press the -> key</strong></p>         </div>     </div>     <br><p>Are you ready?</p>",
		"button_pressed": 0,
		"trial_type": "html-button-response",
		"trial_index": 3,
		"time_elapsed": 11354,
		"internal_node_id": "0.0-3.0",
		"participant_id": "mlqg29oc6307k1z",
		"experiment_version": "0.0.1",
		"data_path": "data/2021149178_mlqg29oc6307k1z",
		"date": "Thu Feb 18 2021 09:17:08 GMT+0800 (Singapore Standard Time)",
		"window_width": 2560,
		"window_height": 1297,
		"window_resolution": "2560x1297",
		"screen_width": 2560,
		"screen_height": 1440,
		"screen_resolution": "2560x1440",
		"screen_colordepth": 24,
		"screen_pixeldepth": 24,
		"screen_touchscreen": false,
		"browser_name": "Netscape",
		"browser_codename": "Mozilla",
		"browser_engine": "Gecko",
		"browser_version": "5.0 (Windows NT 10.0; Win64; x64) AppleWebKit/537.36 (KHTML, like Gecko) Chrome/88.0.4324.182 Safari/537.36",
		"browser": "Mozilla/5.0 (Windows NT 10.0; Win64; x64) AppleWebKit/537.36 (KHTML, like Gecko) Chrome/88.0.4324.182 Safari/537.36",
		"system_platform": "Win32",
		"system_language": "fr-FR"
	},
	{
		"rt": null,
		"stimulus": "<div style='font-size:5em'>+</div>",
		"key_press": null,
		"object": "fixation_cross",
		"trial_type": "html-keyboard-response",
		"trial_index": 4,
		"time_elapsed": 11812,
		"internal_node_id": "0.0-4.0-0.0",
		"participant_id": "mlqg29oc6307k1z",
		"experiment_version": "0.0.1",
		"data_path": "data/2021149178_mlqg29oc6307k1z",
		"date": "Thu Feb 18 2021 09:17:08 GMT+0800 (Singapore Standard Time)",
		"window_width": 2560,
		"window_height": 1297,
		"window_resolution": "2560x1297",
		"screen_width": 2560,
		"screen_height": 1440,
		"screen_resolution": "2560x1440",
		"screen_colordepth": 24,
		"screen_pixeldepth": 24,
		"screen_touchscreen": false,
		"browser_name": "Netscape",
		"browser_codename": "Mozilla",
		"browser_engine": "Gecko",
		"browser_version": "5.0 (Windows NT 10.0; Win64; x64) AppleWebKit/537.36 (KHTML, like Gecko) Chrome/88.0.4324.182 Safari/537.36",
		"browser": "Mozilla/5.0 (Windows NT 10.0; Win64; x64) AppleWebKit/537.36 (KHTML, like Gecko) Chrome/88.0.4324.182 Safari/537.36",
		"system_platform": "Win32",
		"system_language": "fr-FR"
	},
	{
		"rt": 226.27000004285946,
		"stimulus": "stimuli/orange.png",
		"button_pressed": null,
		"key_press": 39,
		"answer": "rightarrow",
		"response_type": "Keyboard",
		"object": "stimulus",
		"correct_key": "rightarrow",
		"correct_button": "->",
		"trial_type": "image-buttonkeyboard-response",
		"trial_index": 5,
		"time_elapsed": 12044,
		"internal_node_id": "0.0-4.0-1.0",
		"participant_id": "mlqg29oc6307k1z",
		"experiment_version": "0.0.1",
		"data_path": "data/2021149178_mlqg29oc6307k1z",
		"date": "Thu Feb 18 2021 09:17:08 GMT+0800 (Singapore Standard Time)",
		"window_width": 2560,
		"window_height": 1297,
		"window_resolution": "2560x1297",
		"screen_width": 2560,
		"screen_height": 1440,
		"screen_resolution": "2560x1440",
		"screen_colordepth": 24,
		"screen_pixeldepth": 24,
		"screen_touchscreen": false,
		"browser_name": "Netscape",
		"browser_codename": "Mozilla",
		"browser_engine": "Gecko",
		"browser_version": "5.0 (Windows NT 10.0; Win64; x64) AppleWebKit/537.36 (KHTML, like Gecko) Chrome/88.0.4324.182 Safari/537.36",
		"browser": "Mozilla/5.0 (Windows NT 10.0; Win64; x64) AppleWebKit/537.36 (KHTML, like Gecko) Chrome/88.0.4324.182 Safari/537.36",
		"system_platform": "Win32",
		"system_language": "fr-FR",
		"prestimulus_duration": 458,
		"trial_number": 1,
		"correct": true
	},
	{
		"rt": null,
		"stimulus": "<p style='color:green; font-size:2em'><b>Correct!</b></p><p>RT: 226.27 ms</p>",
		"key_press": null,
		"trial_type": "html-keyboard-response",
		"trial_index": 6,
		"time_elapsed": 12545,
		"internal_node_id": "0.0-4.0-2.0",
		"participant_id": "mlqg29oc6307k1z",
		"experiment_version": "0.0.1",
		"data_path": "data/2021149178_mlqg29oc6307k1z",
		"date": "Thu Feb 18 2021 09:17:08 GMT+0800 (Singapore Standard Time)",
		"window_width": 2560,
		"window_height": 1297,
		"window_resolution": "2560x1297",
		"screen_width": 2560,
		"screen_height": 1440,
		"screen_resolution": "2560x1440",
		"screen_colordepth": 24,
		"screen_pixeldepth": 24,
		"screen_touchscreen": false,
		"browser_name": "Netscape",
		"browser_codename": "Mozilla",
		"browser_engine": "Gecko",
		"browser_version": "5.0 (Windows NT 10.0; Win64; x64) AppleWebKit/537.36 (KHTML, like Gecko) Chrome/88.0.4324.182 Safari/537.36",
		"browser": "Mozilla/5.0 (Windows NT 10.0; Win64; x64) AppleWebKit/537.36 (KHTML, like Gecko) Chrome/88.0.4324.182 Safari/537.36",
		"system_platform": "Win32",
		"system_language": "fr-FR"
	},
	{
		"rt": null,
		"stimulus": "<div style='font-size:5em'>+</div>",
		"key_press": null,
		"object": "fixation_cross",
		"trial_type": "html-keyboard-response",
		"trial_index": 7,
		"time_elapsed": 13234,
		"internal_node_id": "0.0-4.0-0.1",
		"participant_id": "mlqg29oc6307k1z",
		"experiment_version": "0.0.1",
		"data_path": "data/2021149178_mlqg29oc6307k1z",
		"date": "Thu Feb 18 2021 09:17:08 GMT+0800 (Singapore Standard Time)",
		"window_width": 2560,
		"window_height": 1297,
		"window_resolution": "2560x1297",
		"screen_width": 2560,
		"screen_height": 1440,
		"screen_resolution": "2560x1440",
		"screen_colordepth": 24,
		"screen_pixeldepth": 24,
		"screen_touchscreen": false,
		"browser_name": "Netscape",
		"browser_codename": "Mozilla",
		"browser_engine": "Gecko",
		"browser_version": "5.0 (Windows NT 10.0; Win64; x64) AppleWebKit/537.36 (KHTML, like Gecko) Chrome/88.0.4324.182 Safari/537.36",
		"browser": "Mozilla/5.0 (Windows NT 10.0; Win64; x64) AppleWebKit/537.36 (KHTML, like Gecko) Chrome/88.0.4324.182 Safari/537.36",
		"system_platform": "Win32",
		"system_language": "fr-FR"
	},
	{
		"rt": 242.4349999637343,
		"stimulus": "stimuli/blue.png",
		"button_pressed": null,
		"key_press": 37,
		"answer": "leftarrow",
		"response_type": "Keyboard",
		"object": "stimulus",
		"correct_key": "leftarrow",
		"correct_button": "<-",
		"trial_type": "image-buttonkeyboard-response",
		"trial_index": 8,
		"time_elapsed": 13477,
		"internal_node_id": "0.0-4.0-1.1",
		"participant_id": "mlqg29oc6307k1z",
		"experiment_version": "0.0.1",
		"data_path": "data/2021149178_mlqg29oc6307k1z",
		"date": "Thu Feb 18 2021 09:17:08 GMT+0800 (Singapore Standard Time)",
		"window_width": 2560,
		"window_height": 1297,
		"window_resolution": "2560x1297",
		"screen_width": 2560,
		"screen_height": 1440,
		"screen_resolution": "2560x1440",
		"screen_colordepth": 24,
		"screen_pixeldepth": 24,
		"screen_touchscreen": false,
		"browser_name": "Netscape",
		"browser_codename": "Mozilla",
		"browser_engine": "Gecko",
		"browser_version": "5.0 (Windows NT 10.0; Win64; x64) AppleWebKit/537.36 (KHTML, like Gecko) Chrome/88.0.4324.182 Safari/537.36",
		"browser": "Mozilla/5.0 (Windows NT 10.0; Win64; x64) AppleWebKit/537.36 (KHTML, like Gecko) Chrome/88.0.4324.182 Safari/537.36",
		"system_platform": "Win32",
		"system_language": "fr-FR",
		"prestimulus_duration": 689,
		"trial_number": 2,
		"correct": true
	},
	{
		"rt": null,
		"stimulus": "<p style='color:green; font-size:2em'><b>Correct!</b></p><p>RT: 242.43 ms</p>",
		"key_press": null,
		"trial_type": "html-keyboard-response",
		"trial_index": 9,
		"time_elapsed": 13978,
		"internal_node_id": "0.0-4.0-2.1",
		"participant_id": "mlqg29oc6307k1z",
		"experiment_version": "0.0.1",
		"data_path": "data/2021149178_mlqg29oc6307k1z",
		"date": "Thu Feb 18 2021 09:17:08 GMT+0800 (Singapore Standard Time)",
		"window_width": 2560,
		"window_height": 1297,
		"window_resolution": "2560x1297",
		"screen_width": 2560,
		"screen_height": 1440,
		"screen_resolution": "2560x1440",
		"screen_colordepth": 24,
		"screen_pixeldepth": 24,
		"screen_touchscreen": false,
		"browser_name": "Netscape",
		"browser_codename": "Mozilla",
		"browser_engine": "Gecko",
		"browser_version": "5.0 (Windows NT 10.0; Win64; x64) AppleWebKit/537.36 (KHTML, like Gecko) Chrome/88.0.4324.182 Safari/537.36",
		"browser": "Mozilla/5.0 (Windows NT 10.0; Win64; x64) AppleWebKit/537.36 (KHTML, like Gecko) Chrome/88.0.4324.182 Safari/537.36",
		"system_platform": "Win32",
		"system_language": "fr-FR"
	},
	{
		"rt": null,
		"stimulus": "<div style='font-size:5em'>+</div>",
		"key_press": null,
		"object": "fixation_cross",
		"trial_type": "html-keyboard-response",
		"trial_index": 10,
		"time_elapsed": 14715,
		"internal_node_id": "0.0-4.0-0.2",
		"participant_id": "mlqg29oc6307k1z",
		"experiment_version": "0.0.1",
		"data_path": "data/2021149178_mlqg29oc6307k1z",
		"date": "Thu Feb 18 2021 09:17:08 GMT+0800 (Singapore Standard Time)",
		"window_width": 2560,
		"window_height": 1297,
		"window_resolution": "2560x1297",
		"screen_width": 2560,
		"screen_height": 1440,
		"screen_resolution": "2560x1440",
		"screen_colordepth": 24,
		"screen_pixeldepth": 24,
		"screen_touchscreen": false,
		"browser_name": "Netscape",
		"browser_codename": "Mozilla",
		"browser_engine": "Gecko",
		"browser_version": "5.0 (Windows NT 10.0; Win64; x64) AppleWebKit/537.36 (KHTML, like Gecko) Chrome/88.0.4324.182 Safari/537.36",
		"browser": "Mozilla/5.0 (Windows NT 10.0; Win64; x64) AppleWebKit/537.36 (KHTML, like Gecko) Chrome/88.0.4324.182 Safari/537.36",
		"system_platform": "Win32",
		"system_language": "fr-FR"
	},
	{
		"rt": 276.5849999850616,
		"stimulus": "stimuli/blue.png",
		"button_pressed": null,
		"key_press": 39,
		"answer": "rightarrow",
		"response_type": "Keyboard",
		"object": "stimulus",
		"correct_key": "leftarrow",
		"correct_button": "<-",
		"trial_type": "image-buttonkeyboard-response",
		"trial_index": 11,
		"time_elapsed": 14993,
		"internal_node_id": "0.0-4.0-1.2",
		"participant_id": "mlqg29oc6307k1z",
		"experiment_version": "0.0.1",
		"data_path": "data/2021149178_mlqg29oc6307k1z",
		"date": "Thu Feb 18 2021 09:17:08 GMT+0800 (Singapore Standard Time)",
		"window_width": 2560,
		"window_height": 1297,
		"window_resolution": "2560x1297",
		"screen_width": 2560,
		"screen_height": 1440,
		"screen_resolution": "2560x1440",
		"screen_colordepth": 24,
		"screen_pixeldepth": 24,
		"screen_touchscreen": false,
		"browser_name": "Netscape",
		"browser_codename": "Mozilla",
		"browser_engine": "Gecko",
		"browser_version": "5.0 (Windows NT 10.0; Win64; x64) AppleWebKit/537.36 (KHTML, like Gecko) Chrome/88.0.4324.182 Safari/537.36",
		"browser": "Mozilla/5.0 (Windows NT 10.0; Win64; x64) AppleWebKit/537.36 (KHTML, like Gecko) Chrome/88.0.4324.182 Safari/537.36",
		"system_platform": "Win32",
		"system_language": "fr-FR",
		"prestimulus_duration": 737,
		"trial_number": 3,
		"correct": false
	},
	{
		"rt": null,
		"stimulus": "<p style='color:red; font-size:2em'><b>Wrong.</b></p><p>RT: 276.58 ms</p>",
		"key_press": null,
		"trial_type": "html-keyboard-response",
		"trial_index": 12,
		"time_elapsed": 15494,
		"internal_node_id": "0.0-4.0-2.2",
		"participant_id": "mlqg29oc6307k1z",
		"experiment_version": "0.0.1",
		"data_path": "data/2021149178_mlqg29oc6307k1z",
		"date": "Thu Feb 18 2021 09:17:08 GMT+0800 (Singapore Standard Time)",
		"window_width": 2560,
		"window_height": 1297,
		"window_resolution": "2560x1297",
		"screen_width": 2560,
		"screen_height": 1440,
		"screen_resolution": "2560x1440",
		"screen_colordepth": 24,
		"screen_pixeldepth": 24,
		"screen_touchscreen": false,
		"browser_name": "Netscape",
		"browser_codename": "Mozilla",
		"browser_engine": "Gecko",
		"browser_version": "5.0 (Windows NT 10.0; Win64; x64) AppleWebKit/537.36 (KHTML, like Gecko) Chrome/88.0.4324.182 Safari/537.36",
		"browser": "Mozilla/5.0 (Windows NT 10.0; Win64; x64) AppleWebKit/537.36 (KHTML, like Gecko) Chrome/88.0.4324.182 Safari/537.36",
		"system_platform": "Win32",
		"system_language": "fr-FR"
	},
	{
		"rt": null,
		"stimulus": "<div style='font-size:5em'>+</div>",
		"key_press": null,
		"object": "fixation_cross",
		"trial_type": "html-keyboard-response",
		"trial_index": 13,
		"time_elapsed": 16149,
		"internal_node_id": "0.0-4.0-0.3",
		"participant_id": "mlqg29oc6307k1z",
		"experiment_version": "0.0.1",
		"data_path": "data/2021149178_mlqg29oc6307k1z",
		"date": "Thu Feb 18 2021 09:17:08 GMT+0800 (Singapore Standard Time)",
		"window_width": 2560,
		"window_height": 1297,
		"window_resolution": "2560x1297",
		"screen_width": 2560,
		"screen_height": 1440,
		"screen_resolution": "2560x1440",
		"screen_colordepth": 24,
		"screen_pixeldepth": 24,
		"screen_touchscreen": false,
		"browser_name": "Netscape",
		"browser_codename": "Mozilla",
		"browser_engine": "Gecko",
		"browser_version": "5.0 (Windows NT 10.0; Win64; x64) AppleWebKit/537.36 (KHTML, like Gecko) Chrome/88.0.4324.182 Safari/537.36",
		"browser": "Mozilla/5.0 (Windows NT 10.0; Win64; x64) AppleWebKit/537.36 (KHTML, like Gecko) Chrome/88.0.4324.182 Safari/537.36",
		"system_platform": "Win32",
		"system_language": "fr-FR"
	},
	{
		"rt": 221.27999999793246,
		"stimulus": "stimuli/orange.png",
		"button_pressed": null,
		"key_press": 37,
		"answer": "leftarrow",
		"response_type": "Keyboard",
		"object": "stimulus",
		"correct_key": "rightarrow",
		"correct_button": "->",
		"trial_type": "image-buttonkeyboard-response",
		"trial_index": 14,
		"time_elapsed": 16371,
		"internal_node_id": "0.0-4.0-1.3",
		"participant_id": "mlqg29oc6307k1z",
		"experiment_version": "0.0.1",
		"data_path": "data/2021149178_mlqg29oc6307k1z",
		"date": "Thu Feb 18 2021 09:17:08 GMT+0800 (Singapore Standard Time)",
		"window_width": 2560,
		"window_height": 1297,
		"window_resolution": "2560x1297",
		"screen_width": 2560,
		"screen_height": 1440,
		"screen_resolution": "2560x1440",
		"screen_colordepth": 24,
		"screen_pixeldepth": 24,
		"screen_touchscreen": false,
		"browser_name": "Netscape",
		"browser_codename": "Mozilla",
		"browser_engine": "Gecko",
		"browser_version": "5.0 (Windows NT 10.0; Win64; x64) AppleWebKit/537.36 (KHTML, like Gecko) Chrome/88.0.4324.182 Safari/537.36",
		"browser": "Mozilla/5.0 (Windows NT 10.0; Win64; x64) AppleWebKit/537.36 (KHTML, like Gecko) Chrome/88.0.4324.182 Safari/537.36",
		"system_platform": "Win32",
		"system_language": "fr-FR",
		"prestimulus_duration": 655,
		"trial_number": 4,
		"correct": false
	},
	{
		"rt": null,
		"stimulus": "<p style='color:red; font-size:2em'><b>Wrong.</b></p><p>RT: 221.28 ms</p>",
		"key_press": null,
		"trial_type": "html-keyboard-response",
		"trial_index": 15,
		"time_elapsed": 16872,
		"internal_node_id": "0.0-4.0-2.3",
		"participant_id": "mlqg29oc6307k1z",
		"experiment_version": "0.0.1",
		"data_path": "data/2021149178_mlqg29oc6307k1z",
		"date": "Thu Feb 18 2021 09:17:08 GMT+0800 (Singapore Standard Time)",
		"window_width": 2560,
		"window_height": 1297,
		"window_resolution": "2560x1297",
		"screen_width": 2560,
		"screen_height": 1440,
		"screen_resolution": "2560x1440",
		"screen_colordepth": 24,
		"screen_pixeldepth": 24,
		"screen_touchscreen": false,
		"browser_name": "Netscape",
		"browser_codename": "Mozilla",
		"browser_engine": "Gecko",
		"browser_version": "5.0 (Windows NT 10.0; Win64; x64) AppleWebKit/537.36 (KHTML, like Gecko) Chrome/88.0.4324.182 Safari/537.36",
		"browser": "Mozilla/5.0 (Windows NT 10.0; Win64; x64) AppleWebKit/537.36 (KHTML, like Gecko) Chrome/88.0.4324.182 Safari/537.36",
		"system_platform": "Win32",
		"system_language": "fr-FR"
	},
	{
		"rt": 1335.1499999989755,
		"stimulus": "<p><b>Overall, did you find this task easy?</b></p>",
		"slider_start": 50,
		"response": 69,
		"object": "information",
		"trial_type": "html-slider-response",
		"trial_index": 16,
		"time_elapsed": 18208,
		"internal_node_id": "0.0-5.0",
		"participant_id": "mlqg29oc6307k1z",
		"experiment_version": "0.0.1",
		"data_path": "data/2021149178_mlqg29oc6307k1z",
		"date": "Thu Feb 18 2021 09:17:08 GMT+0800 (Singapore Standard Time)",
		"window_width": 2560,
		"window_height": 1297,
		"window_resolution": "2560x1297",
		"screen_width": 2560,
		"screen_height": 1440,
		"screen_resolution": "2560x1440",
		"screen_colordepth": 24,
		"screen_pixeldepth": 24,
		"screen_touchscreen": false,
		"browser_name": "Netscape",
		"browser_codename": "Mozilla",
		"browser_engine": "Gecko",
		"browser_version": "5.0 (Windows NT 10.0; Win64; x64) AppleWebKit/537.36 (KHTML, like Gecko) Chrome/88.0.4324.182 Safari/537.36",
		"browser": "Mozilla/5.0 (Windows NT 10.0; Win64; x64) AppleWebKit/537.36 (KHTML, like Gecko) Chrome/88.0.4324.182 Safari/537.36",
		"system_platform": "Win32",
		"system_language": "fr-FR"
	},
	{
		"rt": 1205.1450000144541,
		"stimulus": "<p><b>Thank you for participating!</b> Here are your results:</p><hr><p style='color:rgb(76,175,80);'>You responded correctly on <b>50.00%</b> of the trials.</p><p style='color:rgb(233,30,99);'>Your average response time was <b>234.35</b> ms.</p><hr><p> Don't hesitate to spread the word and share this experiment, science appreciates :)</p>",
		"button_pressed": 0,
		"object": "fixation_cross",
		"experiment_duration": 18515.04000002751,
		"trial_type": "html-button-response",
		"trial_index": 17,
		"time_elapsed": 19415,
		"internal_node_id": "0.0-6.0",
		"participant_id": "mlqg29oc6307k1z",
		"experiment_version": "0.0.1",
		"data_path": "data/2021149178_mlqg29oc6307k1z",
		"date": "Thu Feb 18 2021 09:17:08 GMT+0800 (Singapore Standard Time)",
		"window_width": 2560,
		"window_height": 1297,
		"window_resolution": "2560x1297",
		"screen_width": 2560,
		"screen_height": 1440,
		"screen_resolution": "2560x1440",
		"screen_colordepth": 24,
		"screen_pixeldepth": 24,
		"screen_touchscreen": false,
		"browser_name": "Netscape",
		"browser_codename": "Mozilla",
		"browser_engine": "Gecko",
		"browser_version": "5.0 (Windows NT 10.0; Win64; x64) AppleWebKit/537.36 (KHTML, like Gecko) Chrome/88.0.4324.182 Safari/537.36",
		"browser": "Mozilla/5.0 (Windows NT 10.0; Win64; x64) AppleWebKit/537.36 (KHTML, like Gecko) Chrome/88.0.4324.182 Safari/537.36",
		"system_platform": "Win32",
		"system_language": "fr-FR"
	}
]