[
	{
		"rt": 534.4550000008894,
		"stimulus": "    <p><b>Welcome to the experiment! Please read the information below.</b></p>     <hr>     <p><i>Here are the terms and conditions. Blabla something something.</i><p>     <p><i>Another paragraph blabla something else.</i><p>",
		"button_pressed": 0,
		"trial_type": "html-button-response",
		"trial_index": 0,
		"time_elapsed": 537,
		"internal_node_id": "0.0-0.0",
		"participant_id": "uf5banrpszst4wr",
		"experiment_version": "0.0.1",
		"data_path": "data/202113141432_uf5banrpszst4wr",
		"date": "Wed Feb 10 2021 14:14:32 GMT+0800 (Singapore Standard Time)",
		"window_width": 988,
		"window_height": 766,
		"window_resolution": "988x766",
		"screen_width": 1440,
		"screen_height": 900,
		"screen_resolution": "1440x900",
		"screen_colordepth": 30,
		"screen_pixeldepth": 30,
		"screen_touchscreen": false,
		"browser_name": "Netscape",
		"browser_codename": "Mozilla",
		"browser_engine": "Gecko",
		"browser_version": "5.0 (Macintosh; Intel Mac OS X 10_15_7) AppleWebKit/537.36 (KHTML, like Gecko) Chrome/88.0.4324.150 Safari/537.36",
		"browser": "Mozilla/5.0 (Macintosh; Intel Mac OS X 10_15_7) AppleWebKit/537.36 (KHTML, like Gecko) Chrome/88.0.4324.150 Safari/537.36",
		"system_platform": "MacIntel",
		"system_language": "en-GB"
	},
	{
		"rt": 1695.3450000000885,
		"responses": "{\"Age\":\"a\",\"Initials\":\"a\"}",
		"object": "information",
		"trial_type": "survey-text",
		"trial_index": 1,
		"time_elapsed": 2238,
		"internal_node_id": "0.0-1.0",
		"participant_id": "uf5banrpszst4wr",
		"experiment_version": "0.0.1",
		"data_path": "data/202113141432_uf5banrpszst4wr",
		"date": "Wed Feb 10 2021 14:14:32 GMT+0800 (Singapore Standard Time)",
		"window_width": 988,
		"window_height": 766,
		"window_resolution": "988x766",
		"screen_width": 1440,
		"screen_height": 900,
		"screen_resolution": "1440x900",
		"screen_colordepth": 30,
		"screen_pixeldepth": 30,
		"screen_touchscreen": false,
		"browser_name": "Netscape",
		"browser_codename": "Mozilla",
		"browser_engine": "Gecko",
		"browser_version": "5.0 (Macintosh; Intel Mac OS X 10_15_7) AppleWebKit/537.36 (KHTML, like Gecko) Chrome/88.0.4324.150 Safari/537.36",
		"browser": "Mozilla/5.0 (Macintosh; Intel Mac OS X 10_15_7) AppleWebKit/537.36 (KHTML, like Gecko) Chrome/88.0.4324.150 Safari/537.36",
		"system_platform": "MacIntel",
		"system_language": "en-GB"
	},
	{
		"rt": 1533.7950000030105,
		"responses": "{\"AlreadyPlayed\":\"No\"}",
		"question_order": "[0]",
		"object": "information",
		"trial_type": "survey-multi-choice",
		"trial_index": 2,
		"time_elapsed": 3774,
		"internal_node_id": "0.0-2.0",
		"participant_id": "uf5banrpszst4wr",
		"experiment_version": "0.0.1",
		"data_path": "data/202113141432_uf5banrpszst4wr",
		"date": "Wed Feb 10 2021 14:14:32 GMT+0800 (Singapore Standard Time)",
		"window_width": 988,
		"window_height": 766,
		"window_resolution": "988x766",
		"screen_width": 1440,
		"screen_height": 900,
		"screen_resolution": "1440x900",
		"screen_colordepth": 30,
		"screen_pixeldepth": 30,
		"screen_touchscreen": false,
		"browser_name": "Netscape",
		"browser_codename": "Mozilla",
		"browser_engine": "Gecko",
		"browser_version": "5.0 (Macintosh; Intel Mac OS X 10_15_7) AppleWebKit/537.36 (KHTML, like Gecko) Chrome/88.0.4324.150 Safari/537.36",
		"browser": "Mozilla/5.0 (Macintosh; Intel Mac OS X 10_15_7) AppleWebKit/537.36 (KHTML, like Gecko) Chrome/88.0.4324.150 Safari/537.36",
		"system_platform": "MacIntel",
		"system_language": "en-GB"
	},
	{
		"rt": 996.7099999994389,
		"stimulus": "    <p>In this experiment, a circle will appear in the center of the screen.</p>     <p>If the circle is <strong>blue</strong>, press the letter B on the keyboard as fast as you can.</p>     <p>If the circle is <strong>orange</strong>, press the letter O as fast as you can.</p>     <div style='width: 100%;'>         <div style='float: left;'>             <img src='img/blue.png'></img>             <p class='small'><strong>Press the <- key</strong></p>         </div>         <div class='float: right;'>             <img src='img/orange.png'></img>             <p class='small'><strong>Press the -> key</strong></p>         </div>     </div>     <br><p>Are you ready?</p>",
		"button_pressed": 0,
		"trial_type": "html-button-response",
		"trial_index": 3,
		"time_elapsed": 4777,
		"internal_node_id": "0.0-3.0",
		"participant_id": "uf5banrpszst4wr",
		"experiment_version": "0.0.1",
		"data_path": "data/202113141432_uf5banrpszst4wr",
		"date": "Wed Feb 10 2021 14:14:32 GMT+0800 (Singapore Standard Time)",
		"window_width": 988,
		"window_height": 766,
		"window_resolution": "988x766",
		"screen_width": 1440,
		"screen_height": 900,
		"screen_resolution": "1440x900",
		"screen_colordepth": 30,
		"screen_pixeldepth": 30,
		"screen_touchscreen": false,
		"browser_name": "Netscape",
		"browser_codename": "Mozilla",
		"browser_engine": "Gecko",
		"browser_version": "5.0 (Macintosh; Intel Mac OS X 10_15_7) AppleWebKit/537.36 (KHTML, like Gecko) Chrome/88.0.4324.150 Safari/537.36",
		"browser": "Mozilla/5.0 (Macintosh; Intel Mac OS X 10_15_7) AppleWebKit/537.36 (KHTML, like Gecko) Chrome/88.0.4324.150 Safari/537.36",
		"system_platform": "MacIntel",
		"system_language": "en-GB"
	},
	{
		"rt": null,
		"stimulus": "<div style='font-size:5em'>+</div>",
		"key_press": null,
		"object": "fixation_cross",
		"trial_type": "html-keyboard-response",
		"trial_index": 4,
		"time_elapsed": 5387,
		"internal_node_id": "0.0-4.0-0.0",
		"participant_id": "uf5banrpszst4wr",
		"experiment_version": "0.0.1",
		"data_path": "data/202113141432_uf5banrpszst4wr",
		"date": "Wed Feb 10 2021 14:14:32 GMT+0800 (Singapore Standard Time)",
		"window_width": 988,
		"window_height": 766,
		"window_resolution": "988x766",
		"screen_width": 1440,
		"screen_height": 900,
		"screen_resolution": "1440x900",
		"screen_colordepth": 30,
		"screen_pixeldepth": 30,
		"screen_touchscreen": false,
		"browser_name": "Netscape",
		"browser_codename": "Mozilla",
		"browser_engine": "Gecko",
		"browser_version": "5.0 (Macintosh; Intel Mac OS X 10_15_7) AppleWebKit/537.36 (KHTML, like Gecko) Chrome/88.0.4324.150 Safari/537.36",
		"browser": "Mozilla/5.0 (Macintosh; Intel Mac OS X 10_15_7) AppleWebKit/537.36 (KHTML, like Gecko) Chrome/88.0.4324.150 Safari/537.36",
		"system_platform": "MacIntel",
		"system_language": "en-GB"
	},
	{
		"rt": 219.18000000005122,
		"stimulus": "stimuli/blue.png",
		"button_pressed": null,
		"key_press": 39,
		"answer": "rightarrow",
		"response_type": "Keyboard",
		"object": "stimulus",
		"correct_key": "leftarrow",
		"correct_button": "<-",
		"trial_type": "image-buttonkeyboard-response",
		"trial_index": 5,
		"time_elapsed": 5610,
		"internal_node_id": "0.0-4.0-1.0",
		"participant_id": "uf5banrpszst4wr",
		"experiment_version": "0.0.1",
		"data_path": "data/202113141432_uf5banrpszst4wr",
		"date": "Wed Feb 10 2021 14:14:32 GMT+0800 (Singapore Standard Time)",
		"window_width": 988,
		"window_height": 766,
		"window_resolution": "988x766",
		"screen_width": 1440,
		"screen_height": 900,
		"screen_resolution": "1440x900",
		"screen_colordepth": 30,
		"screen_pixeldepth": 30,
		"screen_touchscreen": false,
		"browser_name": "Netscape",
		"browser_codename": "Mozilla",
		"browser_engine": "Gecko",
		"browser_version": "5.0 (Macintosh; Intel Mac OS X 10_15_7) AppleWebKit/537.36 (KHTML, like Gecko) Chrome/88.0.4324.150 Safari/537.36",
		"browser": "Mozilla/5.0 (Macintosh; Intel Mac OS X 10_15_7) AppleWebKit/537.36 (KHTML, like Gecko) Chrome/88.0.4324.150 Safari/537.36",
		"system_platform": "MacIntel",
		"system_language": "en-GB",
		"prestimulus_duration": 610,
		"trial_number": 1,
		"correct": false
	},
	{
		"rt": null,
		"stimulus": "<p style='color:red; font-size:2em'><b>Wrong.</b></p><p>RT: 219.18 ms</p>",
		"key_press": null,
		"trial_type": "html-keyboard-response",
		"trial_index": 6,
		"time_elapsed": 6112,
		"internal_node_id": "0.0-4.0-2.0",
		"participant_id": "uf5banrpszst4wr",
		"experiment_version": "0.0.1",
		"data_path": "data/202113141432_uf5banrpszst4wr",
		"date": "Wed Feb 10 2021 14:14:32 GMT+0800 (Singapore Standard Time)",
		"window_width": 988,
		"window_height": 766,
		"window_resolution": "988x766",
		"screen_width": 1440,
		"screen_height": 900,
		"screen_resolution": "1440x900",
		"screen_colordepth": 30,
		"screen_pixeldepth": 30,
		"screen_touchscreen": false,
		"browser_name": "Netscape",
		"browser_codename": "Mozilla",
		"browser_engine": "Gecko",
		"browser_version": "5.0 (Macintosh; Intel Mac OS X 10_15_7) AppleWebKit/537.36 (KHTML, like Gecko) Chrome/88.0.4324.150 Safari/537.36",
		"browser": "Mozilla/5.0 (Macintosh; Intel Mac OS X 10_15_7) AppleWebKit/537.36 (KHTML, like Gecko) Chrome/88.0.4324.150 Safari/537.36",
		"system_platform": "MacIntel",
		"system_language": "en-GB"
	},
	{
		"rt": null,
		"stimulus": "<div style='font-size:5em'>+</div>",
		"key_press": null,
		"object": "fixation_cross",
		"trial_type": "html-keyboard-response",
		"trial_index": 7,
		"time_elapsed": 6466,
		"internal_node_id": "0.0-4.0-0.1",
		"participant_id": "uf5banrpszst4wr",
		"experiment_version": "0.0.1",
		"data_path": "data/202113141432_uf5banrpszst4wr",
		"date": "Wed Feb 10 2021 14:14:32 GMT+0800 (Singapore Standard Time)",
		"window_width": 988,
		"window_height": 766,
		"window_resolution": "988x766",
		"screen_width": 1440,
		"screen_height": 900,
		"screen_resolution": "1440x900",
		"screen_colordepth": 30,
		"screen_pixeldepth": 30,
		"screen_touchscreen": false,
		"browser_name": "Netscape",
		"browser_codename": "Mozilla",
		"browser_engine": "Gecko",
		"browser_version": "5.0 (Macintosh; Intel Mac OS X 10_15_7) AppleWebKit/537.36 (KHTML, like Gecko) Chrome/88.0.4324.150 Safari/537.36",
		"browser": "Mozilla/5.0 (Macintosh; Intel Mac OS X 10_15_7) AppleWebKit/537.36 (KHTML, like Gecko) Chrome/88.0.4324.150 Safari/537.36",
		"system_platform": "MacIntel",
		"system_language": "en-GB"
	},
	{
		"rt": 58.35999999544583,
		"stimulus": "stimuli/orange.png",
		"button_pressed": null,
		"key_press": 39,
		"answer": "rightarrow",
		"response_type": "Keyboard",
		"object": "stimulus",
		"correct_key": "rightarrow",
		"correct_button": "->",
		"trial_type": "image-buttonkeyboard-response",
		"trial_index": 8,
		"time_elapsed": 6528,
		"internal_node_id": "0.0-4.0-1.1",
		"participant_id": "uf5banrpszst4wr",
		"experiment_version": "0.0.1",
		"data_path": "data/202113141432_uf5banrpszst4wr",
		"date": "Wed Feb 10 2021 14:14:32 GMT+0800 (Singapore Standard Time)",
		"window_width": 988,
		"window_height": 766,
		"window_resolution": "988x766",
		"screen_width": 1440,
		"screen_height": 900,
		"screen_resolution": "1440x900",
		"screen_colordepth": 30,
		"screen_pixeldepth": 30,
		"screen_touchscreen": false,
		"browser_name": "Netscape",
		"browser_codename": "Mozilla",
		"browser_engine": "Gecko",
		"browser_version": "5.0 (Macintosh; Intel Mac OS X 10_15_7) AppleWebKit/537.36 (KHTML, like Gecko) Chrome/88.0.4324.150 Safari/537.36",
		"browser": "Mozilla/5.0 (Macintosh; Intel Mac OS X 10_15_7) AppleWebKit/537.36 (KHTML, like Gecko) Chrome/88.0.4324.150 Safari/537.36",
		"system_platform": "MacIntel",
		"system_language": "en-GB",
		"prestimulus_duration": 354,
		"trial_number": 2,
		"correct": true
	},
	{
		"rt": null,
		"stimulus": "<p style='color:green; font-size:2em'><b>Correct!</b></p><p>RT: 58.36 ms</p>",
		"key_press": null,
		"trial_type": "html-keyboard-response",
		"trial_index": 9,
		"time_elapsed": 7034,
		"internal_node_id": "0.0-4.0-2.1",
		"participant_id": "uf5banrpszst4wr",
		"experiment_version": "0.0.1",
		"data_path": "data/202113141432_uf5banrpszst4wr",
		"date": "Wed Feb 10 2021 14:14:32 GMT+0800 (Singapore Standard Time)",
		"window_width": 988,
		"window_height": 766,
		"window_resolution": "988x766",
		"screen_width": 1440,
		"screen_height": 900,
		"screen_resolution": "1440x900",
		"screen_colordepth": 30,
		"screen_pixeldepth": 30,
		"screen_touchscreen": false,
		"browser_name": "Netscape",
		"browser_codename": "Mozilla",
		"browser_engine": "Gecko",
		"browser_version": "5.0 (Macintosh; Intel Mac OS X 10_15_7) AppleWebKit/537.36 (KHTML, like Gecko) Chrome/88.0.4324.150 Safari/537.36",
		"browser": "Mozilla/5.0 (Macintosh; Intel Mac OS X 10_15_7) AppleWebKit/537.36 (KHTML, like Gecko) Chrome/88.0.4324.150 Safari/537.36",
		"system_platform": "MacIntel",
		"system_language": "en-GB"
	},
	{
		"rt": null,
		"stimulus": "<div style='font-size:5em'>+</div>",
		"key_press": null,
		"object": "fixation_cross",
		"trial_type": "html-keyboard-response",
		"trial_index": 10,
		"time_elapsed": 7711,
		"internal_node_id": "0.0-4.0-0.2",
		"participant_id": "uf5banrpszst4wr",
		"experiment_version": "0.0.1",
		"data_path": "data/202113141432_uf5banrpszst4wr",
		"date": "Wed Feb 10 2021 14:14:32 GMT+0800 (Singapore Standard Time)",
		"window_width": 988,
		"window_height": 766,
		"window_resolution": "988x766",
		"screen_width": 1440,
		"screen_height": 900,
		"screen_resolution": "1440x900",
		"screen_colordepth": 30,
		"screen_pixeldepth": 30,
		"screen_touchscreen": false,
		"browser_name": "Netscape",
		"browser_codename": "Mozilla",
		"browser_engine": "Gecko",
		"browser_version": "5.0 (Macintosh; Intel Mac OS X 10_15_7) AppleWebKit/537.36 (KHTML, like Gecko) Chrome/88.0.4324.150 Safari/537.36",
		"browser": "Mozilla/5.0 (Macintosh; Intel Mac OS X 10_15_7) AppleWebKit/537.36 (KHTML, like Gecko) Chrome/88.0.4324.150 Safari/537.36",
		"system_platform": "MacIntel",
		"system_language": "en-GB"
	},
	{
		"rt": 76.35499999742024,
		"stimulus": "stimuli/blue.png",
		"button_pressed": null,
		"key_press": 39,
		"answer": "rightarrow",
		"response_type": "Keyboard",
		"object": "stimulus",
		"correct_key": "leftarrow",
		"correct_button": "<-",
		"trial_type": "image-buttonkeyboard-response",
		"trial_index": 11,
		"time_elapsed": 7790,
		"internal_node_id": "0.0-4.0-1.2",
		"participant_id": "uf5banrpszst4wr",
		"experiment_version": "0.0.1",
		"data_path": "data/202113141432_uf5banrpszst4wr",
		"date": "Wed Feb 10 2021 14:14:32 GMT+0800 (Singapore Standard Time)",
		"window_width": 988,
		"window_height": 766,
		"window_resolution": "988x766",
		"screen_width": 1440,
		"screen_height": 900,
		"screen_resolution": "1440x900",
		"screen_colordepth": 30,
		"screen_pixeldepth": 30,
		"screen_touchscreen": false,
		"browser_name": "Netscape",
		"browser_codename": "Mozilla",
		"browser_engine": "Gecko",
		"browser_version": "5.0 (Macintosh; Intel Mac OS X 10_15_7) AppleWebKit/537.36 (KHTML, like Gecko) Chrome/88.0.4324.150 Safari/537.36",
		"browser": "Mozilla/5.0 (Macintosh; Intel Mac OS X 10_15_7) AppleWebKit/537.36 (KHTML, like Gecko) Chrome/88.0.4324.150 Safari/537.36",
		"system_platform": "MacIntel",
		"system_language": "en-GB",
		"prestimulus_duration": 677,
		"trial_number": 3,
		"correct": false
	},
	{
		"rt": null,
		"stimulus": "<p style='color:red; font-size:2em'><b>Wrong.</b></p><p>RT: 76.35 ms</p>",
		"key_press": null,
		"trial_type": "html-keyboard-response",
		"trial_index": 12,
		"time_elapsed": 8295,
		"internal_node_id": "0.0-4.0-2.2",
		"participant_id": "uf5banrpszst4wr",
		"experiment_version": "0.0.1",
		"data_path": "data/202113141432_uf5banrpszst4wr",
		"date": "Wed Feb 10 2021 14:14:32 GMT+0800 (Singapore Standard Time)",
		"window_width": 988,
		"window_height": 766,
		"window_resolution": "988x766",
		"screen_width": 1440,
		"screen_height": 900,
		"screen_resolution": "1440x900",
		"screen_colordepth": 30,
		"screen_pixeldepth": 30,
		"screen_touchscreen": false,
		"browser_name": "Netscape",
		"browser_codename": "Mozilla",
		"browser_engine": "Gecko",
		"browser_version": "5.0 (Macintosh; Intel Mac OS X 10_15_7) AppleWebKit/537.36 (KHTML, like Gecko) Chrome/88.0.4324.150 Safari/537.36",
		"browser": "Mozilla/5.0 (Macintosh; Intel Mac OS X 10_15_7) AppleWebKit/537.36 (KHTML, like Gecko) Chrome/88.0.4324.150 Safari/537.36",
		"system_platform": "MacIntel",
		"system_language": "en-GB"
	},
	{
		"rt": null,
		"stimulus": "<div style='font-size:5em'>+</div>",
		"key_press": null,
		"object": "fixation_cross",
		"trial_type": "html-keyboard-response",
		"trial_index": 13,
		"time_elapsed": 8992,
		"internal_node_id": "0.0-4.0-0.3",
		"participant_id": "uf5banrpszst4wr",
		"experiment_version": "0.0.1",
		"data_path": "data/202113141432_uf5banrpszst4wr",
		"date": "Wed Feb 10 2021 14:14:32 GMT+0800 (Singapore Standard Time)",
		"window_width": 988,
		"window_height": 766,
		"window_resolution": "988x766",
		"screen_width": 1440,
		"screen_height": 900,
		"screen_resolution": "1440x900",
		"screen_colordepth": 30,
		"screen_pixeldepth": 30,
		"screen_touchscreen": false,
		"browser_name": "Netscape",
		"browser_codename": "Mozilla",
		"browser_engine": "Gecko",
		"browser_version": "5.0 (Macintosh; Intel Mac OS X 10_15_7) AppleWebKit/537.36 (KHTML, like Gecko) Chrome/88.0.4324.150 Safari/537.36",
		"browser": "Mozilla/5.0 (Macintosh; Intel Mac OS X 10_15_7) AppleWebKit/537.36 (KHTML, like Gecko) Chrome/88.0.4324.150 Safari/537.36",
		"system_platform": "MacIntel",
		"system_language": "en-GB"
	},
	{
		"rt": 33.05999999429332,
		"stimulus": "stimuli/orange.png",
		"button_pressed": null,
		"key_press": 39,
		"answer": "rightarrow",
		"response_type": "Keyboard",
		"object": "stimulus",
		"correct_key": "rightarrow",
		"correct_button": "->",
		"trial_type": "image-buttonkeyboard-response",
		"trial_index": 14,
		"time_elapsed": 9027,
		"internal_node_id": "0.0-4.0-1.3",
		"participant_id": "uf5banrpszst4wr",
		"experiment_version": "0.0.1",
		"data_path": "data/202113141432_uf5banrpszst4wr",
		"date": "Wed Feb 10 2021 14:14:32 GMT+0800 (Singapore Standard Time)",
		"window_width": 988,
		"window_height": 766,
		"window_resolution": "988x766",
		"screen_width": 1440,
		"screen_height": 900,
		"screen_resolution": "1440x900",
		"screen_colordepth": 30,
		"screen_pixeldepth": 30,
		"screen_touchscreen": false,
		"browser_name": "Netscape",
		"browser_codename": "Mozilla",
		"browser_engine": "Gecko",
		"browser_version": "5.0 (Macintosh; Intel Mac OS X 10_15_7) AppleWebKit/537.36 (KHTML, like Gecko) Chrome/88.0.4324.150 Safari/537.36",
		"browser": "Mozilla/5.0 (Macintosh; Intel Mac OS X 10_15_7) AppleWebKit/537.36 (KHTML, like Gecko) Chrome/88.0.4324.150 Safari/537.36",
		"system_platform": "MacIntel",
		"system_language": "en-GB",
		"prestimulus_duration": 697,
		"trial_number": 4,
		"correct": true
	},
	{
		"rt": null,
		"stimulus": "<p style='color:green; font-size:2em'><b>Correct!</b></p><p>RT: 33.06 ms</p>",
		"key_press": null,
		"trial_type": "html-keyboard-response",
		"trial_index": 15,
		"time_elapsed": 9529,
		"internal_node_id": "0.0-4.0-2.3",
		"participant_id": "uf5banrpszst4wr",
		"experiment_version": "0.0.1",
		"data_path": "data/202113141432_uf5banrpszst4wr",
		"date": "Wed Feb 10 2021 14:14:32 GMT+0800 (Singapore Standard Time)",
		"window_width": 988,
		"window_height": 766,
		"window_resolution": "988x766",
		"screen_width": 1440,
		"screen_height": 900,
		"screen_resolution": "1440x900",
		"screen_colordepth": 30,
		"screen_pixeldepth": 30,
		"screen_touchscreen": false,
		"browser_name": "Netscape",
		"browser_codename": "Mozilla",
		"browser_engine": "Gecko",
		"browser_version": "5.0 (Macintosh; Intel Mac OS X 10_15_7) AppleWebKit/537.36 (KHTML, like Gecko) Chrome/88.0.4324.150 Safari/537.36",
		"browser": "Mozilla/5.0 (Macintosh; Intel Mac OS X 10_15_7) AppleWebKit/537.36 (KHTML, like Gecko) Chrome/88.0.4324.150 Safari/537.36",
		"system_platform": "MacIntel",
		"system_language": "en-GB"
	},
	{
		"rt": 863.1600000007893,
		"stimulus": "<p><b>Overall, did you find this task easy?</b></p>",
		"slider_start": 50,
		"response": 50,
		"object": "information",
		"trial_type": "html-slider-response",
		"trial_index": 16,
		"time_elapsed": 10395,
		"internal_node_id": "0.0-5.0",
		"participant_id": "uf5banrpszst4wr",
		"experiment_version": "0.0.1",
		"data_path": "data/202113141432_uf5banrpszst4wr",
		"date": "Wed Feb 10 2021 14:14:32 GMT+0800 (Singapore Standard Time)",
		"window_width": 988,
		"window_height": 766,
		"window_resolution": "988x766",
		"screen_width": 1440,
		"screen_height": 900,
		"screen_resolution": "1440x900",
		"screen_colordepth": 30,
		"screen_pixeldepth": 30,
		"screen_touchscreen": false,
		"browser_name": "Netscape",
		"browser_codename": "Mozilla",
		"browser_engine": "Gecko",
		"browser_version": "5.0 (Macintosh; Intel Mac OS X 10_15_7) AppleWebKit/537.36 (KHTML, like Gecko) Chrome/88.0.4324.150 Safari/537.36",
		"browser": "Mozilla/5.0 (Macintosh; Intel Mac OS X 10_15_7) AppleWebKit/537.36 (KHTML, like Gecko) Chrome/88.0.4324.150 Safari/537.36",
		"system_platform": "MacIntel",
		"system_language": "en-GB"
	},
	{
		"rt": 2845.240000002377,
		"stimulus": "<p><b>Thank you for participating!</b> Here are your results:</p><hr><p style='color:rgb(76,175,80);'>You responded correctly on <b>50.00%</b> of the trials.</p><p style='color:rgb(233,30,99);'>Your average response time was <b>45.71</b> ms.</p><hr><p> Don't hesitate to spread the word and share this experiment, science appreciates :)</p>",
		"button_pressed": 0,
		"object": "fixation_cross",
		"experiment_duration": 10440.699999999197,
		"trial_type": "html-button-response",
		"trial_index": 17,
		"time_elapsed": 13244,
		"internal_node_id": "0.0-6.0",
		"participant_id": "uf5banrpszst4wr",
		"experiment_version": "0.0.1",
		"data_path": "data/202113141432_uf5banrpszst4wr",
		"date": "Wed Feb 10 2021 14:14:32 GMT+0800 (Singapore Standard Time)",
		"window_width": 988,
		"window_height": 766,
		"window_resolution": "988x766",
		"screen_width": 1440,
		"screen_height": 900,
		"screen_resolution": "1440x900",
		"screen_colordepth": 30,
		"screen_pixeldepth": 30,
		"screen_touchscreen": false,
		"browser_name": "Netscape",
		"browser_codename": "Mozilla",
		"browser_engine": "Gecko",
		"browser_version": "5.0 (Macintosh; Intel Mac OS X 10_15_7) AppleWebKit/537.36 (KHTML, like Gecko) Chrome/88.0.4324.150 Safari/537.36",
		"browser": "Mozilla/5.0 (Macintosh; Intel Mac OS X 10_15_7) AppleWebKit/537.36 (KHTML, like Gecko) Chrome/88.0.4324.150 Safari/537.36",
		"system_platform": "MacIntel",
		"system_language": "en-GB"
	}
]